timestamp,ax,ay,az,gx,gy,gz
198088,0.3035,0.0307,-0.9565,-0.9800,-5.7400,0.6300
198131,0.3050,0.0298,-0.9682,-0.1400,-3.8500,1.3300
198174,0.3113,0.0244,-0.9667,-0.9100,-4.9000,0.4900
198217,0.3050,0.0303,-0.9799,-1.0500,-3.2900,0.5600
198260,0.3089,0.0244,-0.9643,-1.8900,-4.7600,-0.6300
198303,0.3055,0.0298,-0.9584,-0.8400,-3.2200,-1.0500
198347,0.2977,0.0371,-0.9682,0.0700,-4.2000,0.0700
198390,0.2938,0.0249,-0.9672,-1.3300,-4.9700,-1.6100
198433,0.2996,0.0351,-0.9711,-1.4700,-3.6400,0.9800
198476,0.3026,0.0312,-0.9731,-1.1200,-5.0400,-0.1400
198519,0.3079,0.0361,-0.9706,-2.3100,-5.0400,0.8400
198562,0.3084,0.0293,-0.9726,-0.9800,-3.7100,0.1400
198605,0.3045,0.0342,-0.9711,-1.8900,-4.2700,-0.7700
198648,0.3030,0.0366,-0.9740,-2.1700,-3.7100,0.0700
198691,0.3060,0.0356,-0.9770,-2.6600,-1.9600,-1.1900
198734,0.3045,0.0395,-0.9843,-3.5000,-3.2900,-2.8700
198777,0.3074,0.0337,-0.9848,-4.4100,-0.0700,-3.6400
198820,0.3123,0.0429,-0.9848,-7.3500,-1.7500,-7.4900
198864,0.3109,0.0508,-0.9687,-8.4700,-0.2100,-6.5100
198907,0.3201,0.0581,-0.9614,-4.4800,2.5200,-3.7100
198950,0.3387,0.0581,-0.9213,-6.5800,0.2100,-8.4000
198994,0.3226,0.0747,-0.9355,-1.9600,-1.6800,0.7000
199038,0.3192,0.0547,-0.9418,-5.3900,-0.7000,-3.2200
199081,0.3221,0.0756,-0.9706,11.2000,-4.2000,-6.5800
199124,0.3167,0.0878,-0.9775,2.9400,-3.0100,-2.8000
199166,0.3338,0.1064,-0.9706,4.6900,-1.0500,-2.7300
199209,0.3338,0.0488,-0.9492,-1.1900,-0.7000,-1.3300
199252,0.3362,0.0551,-0.9462,-0.2100,1.8900,-2.7300
199295,0.3343,0.0669,-0.9599,0.0700,17.7100,-1.8200
199339,0.3357,0.0590,-0.9506,-0.4200,0.2800,-2.8000
199382,0.3406,0.0620,-0.9482,-5.0400,3.2200,-2.5200
199425,0.3372,0.0669,-0.9360,-4.8300,2.8000,-2.3100
199468,0.3406,0.0727,-0.9409,-2.5200,0.2100,-5.3900
199511,0.3514,0.0864,-0.9492,-8.4000,3.5000,-1.7500
199554,0.3587,0.0752,-0.9482,-0.7000,-0.0700,-3.5700
199597,0.3660,0.0781,-0.9345,-4.7600,1.4700,-3.9200
199640,0.3587,0.0976,-0.9331,3.5700,-0.0700,-4.5500
199683,0.3572,0.0874,-0.9579,5.1100,-1.5400,-3.8500
199726,0.3640,0.0903,-0.9453,0.7000,-0.3500,-3.2900
199769,0.3704,0.0791,-0.9331,-0.7000,2.1700,-2.6600
199812,0.3719,0.0888,-0.9540,0.2100,0.3500,-2.2400
199855,0.3684,0.0825,-0.9448,2.1700,1.6100,-2.1000
199898,0.3787,0.0747,-0.9296,1.5400,3.0800,-2.0300
199941,0.3880,0.0747,-0.9394,-3.4300,3.4300,-2.7300
199984,0.3924,0.0786,-0.9174,-0.9800,4.6200,-2.9400
200027,0.3943,0.0864,-0.9165,4.6200,2.9400,-4.1300
200070,0.3963,0.0937,-0.9365,-10.5000,8.9600,-2.5200
200113,0.4324,0.0986,-0.9082,-7.4200,5.7400,-3.2200
200156,0.4070,0.1240,-0.9360,7.0000,1.5400,-5.3200
200199,0.4089,0.0927,-0.9448,-0.7700,3.2900,-1.5400
200242,0.4246,0.0976,-0.9287,-4.7600,10.0100,-0.9100
200286,0.4436,0.0932,-0.9033,0.0700,5.7400,-1.9600
200330,0.4348,0.0976,-0.9340,-3.3600,5.1100,-3.2900
200373,0.4426,0.1166,-0.9174,0.2100,10.0800,-4.9000
200416,0.4519,0.0776,-0.9282,-6.8600,14.5600,-4.8300
200458,0.4602,0.0898,-0.9628,-17.2200,27.0900,-5.2500
200501,0.5388,0.0947,-0.9823,-33.1100,35.4200,-2.5200
200545,0.5929,0.0493,-1.0726,-35.6300,76.3700,12.6700
200589,0.6198,0.2948,-1.0580,-5.9500,138.6000,40.1100
200632,0.7530,0.2206,-0.9130,-3.4300,159.0400,67.6900
200675,0.6954,0.0908,-0.6754,-9.2400,142.8700,81.4800
200719,0.7496,0.0781,-0.5441,-0.3500,141.0500,76.9300
200763,0.8194,0.0020,-0.3582,-7.0700,143.4300,98.3500
200806,0.9374,-0.0556,-0.1972,22.6100,95.6900,103.6700
200849,0.9721,-0.1366,-0.2211,41.0200,49.4900,29.6100
200893,0.9721,-0.1215,-0.2503,25.1300,67.4100,16.6600
200937,0.8857,-0.1566,-0.1874,31.5700,81.9000,16.2400
200981,1.0258,-0.1684,-0.1103,8.8200,55.3700,11.6200
201025,1.0341,-0.1928,-0.0771,9.7300,59.5000,-0.9100
201068,1.0424,-0.2191,-0.0044,24.7800,57.1200,-7.9100
201111,0.9745,-0.1869,0.0405,24.9200,56.6300,-40.4600
201155,0.7989,-0.1161,0.1000,82.6700,34.3700,-70.5600
201199,0.9296,-0.0205,0.1654,76.1600,34.3700,-47.8100
201243,0.9492,-0.0503,0.1942,85.9600,52.8500,-28.7700
201287,0.8725,0.0459,0.1703,90.0200,94.5000,2.3800
201330,0.7993,0.1376,0.2982,90.6500,98.1400,45.9900
201374,0.5851,0.0566,0.3240,89.4600,84.0000,12.2500
201417,1.1112,0.2250,0.5461,112.9100,68.8100,-31.9900
201461,0.9130,0.0727,0.2001,-5.6700,62.3700,37.6600
201505,0.8164,-0.0449,0.3894,-10.9900,15.5400,81.3400
201549,0.8804,-0.0620,0.3884,-14.8400,4.1300,61.1100
201593,0.7681,-0.1030,0.3992,-27.6500,10.9200,-4.2700
201637,0.6432,-0.1142,0.4319,-65.7300,-10.1500,4.4100
201681,0.8642,-0.0878,0.6300,-114.7300,1.5400,46.2700
201725,1.0985,-0.1586,0.5983,-68.8800,-16.4500,50.2600
201769,1.0097,-0.2996,0.4577,-41.1600,8.8900,11.6900
201813,0.9384,-0.4143,0.3528,-29.9600,38.6400,-23.5200
201857,0.5236,-0.1396,0.5890,-63.7700,-6.5100,-8.1900
201900,0.9409,-0.3362,0.4285,-39.5500,22.2600,-41.4400
201943,1.0106,-0.3338,0.4216,-57.8900,-10.5000,-12.1800
201987,0.8984,-0.3118,0.4919,-51.5900,-0.1400,-38.8500
202030,0.8145,-0.2352,0.5139,-49.3500,-12.7400,-44.1700
202074,0.8047,-0.3152,0.5627,-19.6700,-1.9600,-29.6800
202118,0.8115,-0.2699,0.5714,24.0800,-10.9900,-0.8400
202162,0.8550,-0.2840,0.5197,34.6500,-3.6400,-7.8400
202206,0.9560,-0.2450,0.5109,89.1800,-9.3100,-14.2100
202250,0.8550,-0.2235,0.4626,99.3300,4.3400,-13.5100
202293,0.8442,-0.1737,0.4758,81.1300,-2.1700,-11.8300
202337,0.9165,-0.0844,0.4973,112.7700,10.5700,-10.9200
202381,0.8711,-0.0098,0.4782,140.9800,27.0200,16.8700
202425,0.8320,0.0307,0.5080,102.4100,24.6400,15.7500
202469,0.9043,0.1005,0.5846,121.1000,16.5900,29.1200
202513,0.8120,0.1103,0.4948,139.3700,39.2000,35.2800
202557,0.8930,0.0917,0.5031,146.8600,71.8200,30.1000
202601,0.9052,0.0996,0.5607,113.4700,38.7800,58.2400
202645,0.9755,0.0654,0.7466,122.6400,11.7600,68.3900
202689,0.9038,0.0766,0.5031,134.7500,6.7900,-26.3200
202733,0.8477,0.2469,0.5749,75.6700,-13.0200,-5.6000
202776,0.7666,0.2201,0.7100,89.6000,-26.0400,-13.3700
202820,0.7227,0.3450,0.5632,86.3100,-26.1100,-19.6000
202863,0.7725,0.3972,0.5407,71.7500,-35.2800,-9.5200
202906,0.7740,0.4104,0.5524,48.2300,-37.8700,15.1200
202950,0.8159,0.2991,0.4138,88.9000,-32.2700,12.5300
202994,0.7798,0.4690,0.3528,74.9700,-17.6400,17.3600
203038,0.8569,0.4065,0.2865,73.4300,-14.8400,19.9500
203082,0.9306,0.3753,0.3558,66.7800,-32.4800,7.4200
203125,0.9350,0.3743,0.1610,57.3300,-40.3900,2.0300
203169,0.8818,0.3924,0.0659,60.4800,-36.1200,-16.8700
203213,0.8623,0.4402,-0.0239,31.1500,-21.6300,-12.9500
203257,0.8462,0.4485,-0.0293,5.7400,-14.5600,-4.7600
203301,0.8359,0.4519,0.0063,-11.5500,1.4700,3.3600
203344,0.8457,0.4631,0.0224,-24.2200,-0.2100,10.2900
203388,0.8296,0.4421,0.0400,-68.7400,8.5400,17.9200
203432,0.7906,0.3816,0.0752,-133.9100,47.3200,19.8100
203476,0.7022,0.2494,0.1113,-266.4200,69.5100,60.3400
203520,0.9160,0.2489,0.4441,-173.0400,66.8500,38.6400
203564,0.9536,0.1752,0.6266,-126.5600,50.8900,47.5300
203608,0.9272,0.0996,0.6852,-74.6900,11.2000,12.8800
203652,0.8950,0.0737,0.6037,-53.4100,-16.0300,0.4900
203696,0.8838,0.0752,0.5592,-44.3100,-12.6700,-6.0900
203740,0.9091,0.0420,0.4958,-45.0800,-16.5900,-11.3400
203784,0.9174,0.0073,0.4831,-72.6600,-33.3200,-21.5600
203828,0.8530,0.0488,0.4738,-71.8900,-22.0500,-27.7200
203872,0.8159,0.0874,0.5295,-45.3600,1.9600,-25.4100
203916,0.8291,0.1064,0.6022,14.7000,3.2200,-37.1000
203959,0.8125,0.1264,0.5407,46.1300,5.4600,-42.0700
204003,0.8374,0.1313,0.4817,74.8300,11.7600,-49.9100
204047,0.7989,0.1830,0.5114,33.1100,22.8900,-46.9000
204091,0.7598,0.3099,0.6544,20.0900,28.9800,-33.2500
204135,0.7105,0.3963,0.6656,31.7100,16.5900,-12.9500
204179,0.7188,0.4011,0.7510,70.8400,-8.3300,-1.0500
204223,0.7466,0.4031,0.6486,74.7600,-6.2300,20.9300
204267,0.7642,0.3943,0.5592,67.8300,-20.8600,40.5300
204311,0.7930,0.3055,0.4690,61.1800,-14.0700,59.5000
204355,0.8882,0.1918,0.4865,33.3900,-30.1000,32.6200
204399,0.8965,0.2474,0.4143,40.7400,-20.3000,11.9700
204443,0.8886,0.2689,0.3148,12.2500,-26.7400,13.9300
204487,0.8896,0.2489,0.3284,3.7100,-9.3800,4.4100
204531,0.9057,0.2469,0.2655,-14.9100,-11.4800,-5.8100
204575,0.9121,0.2338,0.3294,-30.4500,0.2800,-23.0300
204619,0.9418,0.2518,0.3592,-12.1100,-9.7300,-38.6400
204662,0.9101,0.2562,0.3963,-33.3200,-10.6400,-50.8200
204706,0.8535,0.3841,0.4534,-24.3600,3.8500,-55.4400
204750,0.8067,0.4280,0.5241,-14.0700,-13.5800,-49.0000
204793,0.7759,0.4573,0.5202,-18.6200,-12.8100,-27.5800
204837,0.7881,0.4509,0.4587,1.7500,-15.8200,-17.0800
204880,0.7432,0.4538,0.3577,-2.3800,-7.7700,-4.6200
204923,0.7452,0.4607,0.4104,-3.2200,-2.0300,-0.1400
204966,0.7842,0.4431,0.4270,-5.1800,-0.5600,0.2800
205009,0.8150,0.4275,0.4407,-1.5400,-4.6200,0.4900
205052,0.8106,0.4294,0.4402,-2.4500,-4.8300,-0.0700
205095,0.7989,0.4441,0.4099,-3.5000,-5.5300,2.5200
205138,0.8062,0.4168,0.4504,-6.0900,-2.5900,2.0300
205182,0.8086,0.4255,0.4260,-4.2700,-2.2400,4.5500
205225,0.8208,0.3997,0.4534,-6.6500,-0.7700,3.1500
205269,0.8179,0.3977,0.4392,-12.0400,-3.7100,4.9000
205312,0.8042,0.4065,0.4499,-0.2100,-0.2800,7.6300
205355,0.8081,0.4041,0.4255,-4.4100,5.2500,6.0900
205398,0.8164,0.4050,0.4616,0.7700,-0.5600,4.5500
205441,0.8062,0.3928,0.4216,-0.7000,3.1500,4.6200
205484,0.7871,0.4089,0.4275,-6.3700,3.2200,6.5800
205528,0.7759,0.3772,0.4070,-13.5800,10.2200,17.6400
205572,0.7862,0.3723,0.4685,-2.7300,16.6600,13.9300
205616,0.8140,0.3401,0.3948,8.0500,15.1200,10.6400
205660,0.7642,0.2333,0.4231,12.8100,7.4900,-7.8400
205703,0.8672,0.2772,0.4260,-19.8800,9.8000,-24.0800
205746,0.7759,0.3689,0.5246,-3.2200,-8.3300,-36.7500
205789,0.6676,0.6227,0.6378,-27.9300,0.2100,-23.5200
205833,0.5836,0.5827,0.7281,-1.6100,-1.0500,-5.0400
205875,0.6515,0.5817,0.8540,26.8100,-11.8300,24.2200
205919,0.6500,0.5475,0.7213,47.3900,-12.7400,59.2900
205963,0.7403,0.4372,0.6539,88.0600,-22.7500,92.4000
206007,0.8325,0.2972,0.5187,83.3000,-30.8000,93.5900
206051,0.9340,0.1523,0.4343,58.6600,-63.5600,86.2400
206095,1.0292,0.0864,0.2899,-31.8500,-140.7700,94.8500
206139,1.0233,0.0859,0.1586,-182.4900,-243.6000,124.5300
206183,0.9316,0.0600,-0.1098,-304.9200,-300.0200,170.1000
206227,0.9984,-0.0200,-0.2508,-385.2100,-305.6200,168.2100
206271,0.8638,-0.0712,-0.3504,-347.2000,-265.0900,130.2000
206315,0.7715,0.0000,-0.6066,-290.9900,-222.1800,97.7900
206358,0.7110,0.0756,-0.6725,-200.8300,-167.8600,56.8400
206402,0.5973,0.1342,-0.8072,-62.3700,-73.2200,8.6100
206445,0.5895,0.1576,-0.8706,-48.2300,-30.4500,17.7800
206488,0.6090,0.1513,-0.7959,-3.2900,-2.6600,8.6800
206531,0.6442,0.1225,-0.7696,-29.1200,-22.8900,21.0700
206575,0.6608,0.1240,-0.7564,-23.7300,-36.8200,23.8000
206619,0.6481,0.1244,-0.8652,-26.3200,-59.2900,31.8500
206663,0.5441,0.1386,-0.8218,-69.0200,-73.7100,43.1900
206707,0.5148,0.1791,-0.9057,-65.0300,-46.0600,24.5700
206750,0.5173,0.2528,-0.8291,-35.5600,-25.8300,24.4300
206794,0.4734,0.2445,-0.8642,48.0900,34.6500,-3.1500
206838,0.4812,0.2562,-0.8867,271.6700,174.7900,-78.4700
206882,0.5217,0.0732,-0.8813,533.6800,389.9000,-168.7700
206926,0.7554,-0.0371,-0.3475,642.6000,528.2200,-250.1100
206970,0.9775,-0.1659,-0.0493,371.0000,421.0500,-266.9100
207014,0.9106,0.2952,0.2689,112.3500,245.7700,-177.8700
207058,0.7940,0.4846,0.7388,46.9000,98.0000,-25.5500
207102,0.8047,0.3977,0.6046,63.9800,56.0700,-3.0800
207146,0.9160,0.2484,0.8242,48.6500,16.6600,17.4300
207190,0.9082,0.2874,0.5919,36.8900,-18.6900,7.4900
207234,0.8906,0.2533,0.4475,10.0800,-25.0600,0.6300
207278,0.8355,0.3167,0.4006,5.5300,-19.8800,-7.8400
207321,0.8384,0.3470,0.3640,-1.1900,-19.6000,2.3100
207364,0.8457,0.3104,0.3728,-8.8900,-15.5400,7.1400
207407,0.8711,0.2835,0.3665,-28.3500,-11.3400,5.8100
207450,0.9091,0.2533,0.4182,-84.2100,-39.0600,17.2900
207493,0.8862,0.2318,0.3109,-171.0800,-43.8900,54.4600
207537,0.9013,-0.0049,0.4514,-294.4200,-65.3100,90.0900
207581,1.0336,-0.2420,0.4460,-280.4200,-10.9900,84.5600
207625,1.0350,-0.2255,0.4519,-202.7900,-31.8500,20.2300
207668,1.0219,-0.2689,0.4704,-121.7300,-28.7000,-6.5800
207711,0.9711,-0.2689,0.3738,-107.3100,-56.1400,-28.5600
207755,0.9345,-0.2230,0.2918,-62.7200,-27.5100,-31.2900
207799,0.9482,-0.2059,0.2723,-51.2400,-24.2900,-34.0200
207843,0.9428,-0.1420,0.2425,-30.3800,-24.5000,-34.7900
207887,0.9292,-0.1254,0.2059,-27.2300,-26.5300,-30.4500
207931,0.9209,-0.0766,0.1820,-6.7900,-12.2500,-21.0700
207975,0.9282,-0.0864,0.1810,-7.7700,-13.1600,-8.9600
208018,0.9282,-0.0571,0.2001,9.8700,-3.5000,-7.6300
208062,0.9814,-0.1235,0.1962,-6.1600,-15.0500,2.3800
208105,0.9999,-0.1264,0.1737,-9.2400,-23.5900,-0.4900
208148,1.0433,-0.1874,0.1269,-34.7200,-42.7700,0.5600
208191,1.0214,-0.1410,0.0581,-29.3300,-39.6900,-7.8400
208234,0.9862,-0.1191,0.0551,-22.8900,-21.4900,-4.6900
208278,0.9701,-0.0839,0.0639,-16.8700,-11.6900,5.3200
208322,1.0063,-0.1259,0.0473,-19.6000,-10.6400,6.7900
208366,1.0058,-0.1200,0.0654,-7.4200,-9.1000,5.1100
208410,1.0058,-0.1508,0.1064,-5.8100,-13.4400,0.9800
208453,0.9809,-0.1357,0.0913,-5.7400,-15.4000,-2.0300
208496,1.0204,-0.1454,0.1596,-13.6500,-29.0500,-2.4500
208539,0.9765,-0.0874,0.2357,7.0700,-62.2300,-5.8100
208582,1.0024,-0.1215,0.1230,44.8700,-101.2900,-1.3300
208625,1.0175,-0.1967,0.0029,11.6200,-179.6900,-12.4600
208667,0.9257,-0.1547,-0.2006,2.3100,-202.3700,-30.5200
208710,0.8394,-0.1362,-0.3875,-23.8000,-215.9500,-39.7600
208754,0.7662,-0.1191,-0.5339,-42.7000,-236.7400,-53.2700
208798,0.6368,0.0288,-0.7354,-24.3600,-256.6200,-44.1700
208842,0.4363,0.0659,-0.9560,-58.5200,-166.8800,-35.1400
208886,0.4006,0.1264,-0.9848,-33.5300,-118.2300,-17.9900
208930,0.3255,0.1562,-1.0512,-15.8200,-66.3600,-28.4900
208974,0.3362,0.1718,-1.0028,-7.0000,-30.5900,-21.8400
209017,0.2952,0.2025,-1.0116,-11.5500,-21.6300,-9.8700
209061,0.3089,0.2084,-0.9858,-11.6200,-5.7400,-3.5000
209104,0.3050,0.2289,-0.9457,-3.7800,-0.9100,-2.1700
209147,0.2733,0.2313,-0.9106,-3.8500,-4.6900,-0.8400
209190,0.3699,0.1425,-0.9477,-9.9400,1.3300,-0.2800
209233,0.4348,0.1752,-0.9145,-18.0600,14.4200,11.2700
209277,0.3543,0.1942,-0.9799,9.3800,27.5800,5.5300
209320,0.3904,0.2328,-0.9306,-3.4300,24.4300,-3.9900
209363,0.4299,0.2333,-0.8926,-39.4100,15.6800,14.2100
209407,0.4812,0.1918,-0.8067,7.9100,-1.1900,2.1700
209451,0.4480,0.2059,-0.8618,15.8900,1.5400,-3.7100
209494,0.4665,0.2015,-0.8628,17.9900,8.1900,-3.0100
209537,0.4602,0.2020,-0.8872,13.1600,-2.5200,-1.0500
209580,0.4416,0.1840,-0.9155,13.0200,6.3000,-0.3500
209623,0.3958,0.1493,-0.9028,-6.7900,-0.4200,3.0100
209666,0.4929,0.2040,-0.8657,13.7200,9.8700,-4.6200
209708,0.4724,0.1479,-0.8921,-0.7000,1.4000,0.7000
209752,0.3719,0.1283,-0.9189,6.7900,3.9900,2.5200
209795,0.5046,0.1713,-0.9091,8.3300,13.1600,0.2800
209838,0.4607,0.1469,-0.9711,47.9500,44.0300,-7.6300
209881,0.4865,0.1352,-0.9453,106.0500,97.0900,-26.7400
209925,0.5334,0.0556,-0.9399,138.7400,159.1100,-46.2000
209969,0.6559,0.0049,-0.8150,171.3600,199.6400,-58.5900
210013,0.7623,-0.0468,-0.6183,156.2400,206.6400,-82.8100
210057,0.8247,0.0117,-0.4656,133.5600,190.1900,-86.5200
210101,0.9106,0.0024,-0.2967,69.9300,154.0000,-83.0200
210145,0.9204,0.0361,-0.2181,24.5000,146.3000,-58.3800
210189,0.9443,0.0371,-0.0698,-3.2200,140.1400,-36.1900
210233,0.9531,0.0776,0.0766,-29.4700,148.2600,-16.8700
210277,0.9331,0.0273,0.2108,-75.2500,139.7900,24.2900
210321,0.9487,-0.0830,0.3309,-153.3000,99.5400,58.9400
210365,0.9692,-0.1454,0.4377,-169.8200,60.4100,59.9900
210409,1.0463,-0.3201,0.4621,-218.7500,-18.7600,40.8100
210453,1.0126,-0.2835,0.4285,-203.3500,-47.6700,-4.9700
210497,0.9789,-0.3006,0.3226,-214.2700,-72.5900,-33.9500
210541,0.9872,-0.2445,0.1850,-183.1200,-71.3300,-45.1500
210584,0.9550,-0.1918,0.1342,-167.0200,-72.4500,-45.0100
210628,0.9921,-0.1376,0.0791,-116.6900,-63.5600,-44.0300
210672,1.0004,-0.1200,0.0386,-100.1700,-85.0500,-59.9900
210716,0.9570,-0.0459,-0.0883,-75.9500,-92.2600,-70.4200
210760,0.9921,-0.0068,-0.2528,-59.5700,-98.7000,-72.6600
210804,1.0482,0.1498,-0.4021,-59.5700,-97.3000,-82.4600
210848,0.9043,0.1449,-0.3484,-21.4900,-126.0000,-97.7900
210892,0.7984,0.2435,-0.4387,12.8100,-131.1100,-88.2000
210936,0.7281,0.2518,-0.5139,40.6000,-119.4900,-75.1100
210980,0.7862,0.3216,-0.5768,85.1200,-115.7100,-61.6700
211024,0.5236,0.1181,-0.7271,99.1200,-112.9800,-74.9700
211068,0.5065,0.2572,-0.8618,69.0200,-91.2800,-52.7800
211112,0.4446,0.1825,-0.9902,80.2900,-45.2900,-25.3400
211156,0.4470,0.2054,-0.9238,44.5900,-33.5300,-15.2600
211200,0.3802,0.2015,-0.9736,47.6000,-11.7600,22.6100
211244,0.4187,0.1054,-1.0199,0.5600,46.9000,42.7700
211288,0.4294,0.1288,-1.0502,6.5800,87.6400,65.3100
211332,0.5153,-0.0698,-1.0155,-82.8800,110.8100,111.2300
211375,0.6856,-0.0156,-0.6334,-119.0000,147.3500,108.9200
211419,0.8359,-0.0717,-0.5915,-94.9900,143.2900,63.0000
211463,0.9653,-0.0298,-0.3748,-96.9500,91.2800,50.6100
211507,0.9301,-0.0259,-0.3338,-85.0500,56.2100,33.0400
211551,0.9536,0.0449,-0.3250,-65.5200,34.1600,6.1600
211595,0.9721,0.0586,-0.3421,-62.8600,15.0500,-19.0400
211639,0.9418,0.1000,-0.3318,-66.9900,-6.9300,-38.6400
211683,0.9223,0.1791,-0.3436,-53.6900,-15.1900,-45.0800
211727,0.8896,0.2704,-0.2752,-34.0200,-28.1400,-54.8800
211771,0.8447,0.3133,-0.2928,10.5000,-44.5900,-65.7300
211815,0.8677,0.3436,-0.2967,65.9400,-54.6700,-79.5200
211859,0.8374,0.2786,-0.3597,122.5700,-66.9200,-109.0600
211903,0.6344,0.2957,-0.5929,79.3100,-90.3000,-113.2600
211947,0.6451,0.4616,-0.6285,87.1500,-72.2400,-70.5600
211991,0.4641,0.3401,-0.7579,53.8300,-67.6900,-49.4200
212035,0.4699,0.4226,-0.7613,73.7800,-61.0400,-7.0000
212079,0.4987,0.3299,-0.8555,31.9200,-33.8800,-0.1400
212122,0.5319,0.2704,-0.8364,52.9900,-38.9900,4.9000
212166,0.5022,0.2308,-0.8725,29.6800,-30.6600,1.6800
212209,0.4709,0.2747,-0.8203,44.1700,-33.9500,-1.8200
212253,0.4128,0.1942,-0.8838,67.4100,-53.2000,10.7800
212297,0.3504,0.2089,-0.9277,74.5500,-46.6900,12.0400
212341,0.3440,0.0996,-1.0668,77.0700,-19.7400,15.3300
212385,0.3553,0.0781,-1.0258,27.5100,19.6700,18.1300
212429,0.4109,0.0386,-0.9365,71.1900,50.6100,29.9600
212473,0.4768,-0.0844,-0.9428,46.9000,61.5300,22.7500
212517,0.4958,-0.0537,-0.9121,37.3800,72.9400,46.4100
212561,0.6022,-0.2406,-0.7496,105.5600,89.0400,20.5100
212605,0.5939,-0.2045,-0.7681,37.8700,68.5300,46.6200
212649,0.7086,-0.2645,-0.7130,70.4900,101.9900,40.7400
212693,0.6725,-0.3104,-0.6637,27.5100,65.6600,58.3100
212737,0.7091,-0.3533,-0.6666,60.9000,108.9900,42.7000
212781,0.7349,-0.3972,-0.5734,55.8600,129.6400,35.7000
212825,0.7535,-0.4553,-0.4636,21.9100,139.7900,52.0800
212869,0.8364,-0.5397,-0.3455,-22.2600,130.9700,45.0800
212913,0.8906,-0.5295,-0.2211,-39.2000,108.8500,20.4400
212957,0.8633,-0.4875,-0.2011,-21.2800,96.0400,-23.9400
213000,0.8769,-0.4748,-0.0908,-8.5400,76.5100,-5.0400
213044,0.9233,-0.3967,-0.0293,48.5100,25.6200,-0.4900
213088,0.9174,-0.4987,-0.1654,59.9900,21.4900,-24.7100
213132,0.9213,-0.3743,-0.0117,15.6100,25.6900,-19.4600
213176,0.9989,-0.4402,0.0449,-57.7500,12.8100,-10.5700
213220,1.0028,-0.4802,0.1157,-44.4500,-21.5600,-10.2900
213264,1.0370,-0.6051,-0.1371,-126.9800,-55.0200,-36.8200
213308,1.0238,-0.4743,-0.2020,-170.9400,-91.7000,-51.5900
213352,0.9292,-0.2757,-0.2294,-207.4100,-120.4700,-69.3700
213396,0.8691,-0.1069,-0.1303,-154.4200,-102.9000,-59.9200
213440,0.8096,-0.0317,-0.2782,-48.5800,-86.3800,-39.7600
213484,0.9867,0.0283,-0.4758,-18.9000,-102.2700,-69.2300
213528,0.8467,-0.2528,-0.3645,17.2900,-166.4600,-88.4800
213572,0.6324,0.0220,-0.5636,15.2600,-174.9300,-106.7500
213616,0.5427,0.0293,-0.7593,28.7000,-119.3500,-100.6600
213660,0.4836,0.0922,-0.7901,34.3000,-117.8100,-101.3600
213704,0.3650,0.1035,-0.9272,48.9300,-104.8600,-86.3100
213748,0.2928,0.0937,-0.9609,45.5000,-65.5900,-80.1500
213791,0.2723,0.1098,-1.0790,37.5900,-56.7700,-56.2800
213834,0.2557,0.0634,-0.9975,37.3800,-42.5600,-61.9500
213878,0.2494,0.0781,-0.9843,29.1900,-30.2400,-59.5000
213921,0.2035,0.0752,-1.0380,21.6300,-30.3100,-38.8500
213964,0.1669,0.0429,-1.1151,32.2000,45.4300,-63.4200
214008,0.2225,0.0268,-1.1468,77.2100,112.8400,-102.2000
214052,0.2733,0.0415,-1.0643,84.1400,186.6200,-113.3300
214096,0.4524,0.0146,-0.8730,116.6200,234.9900,-114.7300
214140,0.6539,-0.0698,-0.7471,118.0900,230.8600,-132.0900
214184,0.7379,0.0268,-0.5958,124.8100,239.2600,-140.2800
214228,0.8223,0.0288,-0.4626,129.7100,247.7300,-143.5000
214272,0.9072,0.0517,-0.2133,133.0700,245.8400,-123.7600
214316,0.9106,0.1747,-0.1108,147.7700,196.7000,-100.3800
214360,0.9199,0.2704,0.0273,85.8200,172.3400,-90.8600
214404,0.9379,0.3592,0.2840,32.2700,115.6400,-75.8800
214448,0.9501,0.3592,0.2801,20.3700,96.1100,-33.1100
214492,0.9306,0.3216,0.3250,4.6200,60.0600,-38.1500
214536,0.9843,0.2782,0.3177,14.3500,45.9900,-54.4600
214580,0.9204,0.3470,0.3572,0.0700,34.1600,-53.9700
214624,0.8745,0.4294,0.4216,-0.9800,-1.6100,-61.2500
214666,0.8062,0.4607,0.3997,-3.2200,-8.4700,-62.5100
214709,0.7008,0.6500,0.4534,7.4900,-29.3300,-47.1800
214753,0.5934,0.8594,0.4597,10.3600,-40.6700,19.7400
214797,0.6500,0.7330,0.4509,61.8100,-28.1400,53.5500
214841,0.7749,0.6134,0.3592,71.7500,-42.4900,93.1000
214885,0.8779,0.3997,0.2367,73.6400,-56.1400,109.1300
214929,0.9228,0.2762,0.1030,41.7900,-76.7900,112.4200
214973,0.9555,0.1269,-0.0483,37.2400,-57.1200,97.8600
215017,0.9721,0.0893,-0.1537,-19.8100,-54.2500,87.6400
215060,0.9887,0.0005,-0.1498,-22.5400,-6.5800,50.0500
215103,1.0414,-0.0307,-0.0737,-6.4400,1.8200,-10.3600
215147,1.0487,-0.0078,-0.0810,0.5600,25.3400,-58.1000
215190,1.0189,0.0752,-0.0454,-6.4400,33.3900,-100.5900
215234,0.9618,0.3733,0.0756,-4.1300,28.7000,-114.6600
215278,0.8779,0.4172,0.1118,-18.2700,10.2200,-86.7300
215322,0.8316,0.5558,0.1503,-19.7400,4.0600,-54.8800
215366,0.8018,0.6427,0.2162,-28.2100,-10.9900,-2.5900
215410,0.8398,0.5905,0.2342,-9.9400,-18.3400,22.3300
215454,0.8930,0.5431,0.1845,-12.8800,-38.9900,58.3800
215498,0.9414,0.4704,0.1850,-21.8400,-81.4800,109.9700
215541,0.9262,0.3314,0.0498,-10.1500,-85.5400,112.0700
215585,0.8921,0.1903,-0.0581,7.5600,-53.6900,81.4800
215629,0.9379,0.1449,-0.1220,19.4600,-1.3300,44.5200
215673,1.0165,0.0620,-0.0766,27.3000,17.7800,21.9800
215717,1.0438,0.0190,-0.1025,2.5200,0.7000,29.8900
215761,1.0863,-0.0786,-0.1044,-55.7200,-2.3100,24.3600
215805,1.0658,0.0059,-0.0942,-104.1600,0.3500,21.7700
215849,1.0565,0.0376,-0.0625,-221.2000,-65.5900,105.7000
215893,1.0795,-0.1108,0.0229,-257.1800,-99.1200,95.4800
215937,0.9477,-0.0303,-0.1308,-231.1400,-122.8500,122.0800
215981,1.0638,-0.1352,-0.0815,-254.3100,-151.7600,105.9100
216025,0.9233,-0.0888,-0.3177,-185.5700,-144.4800,83.7200
216069,0.8882,-0.0908,-0.3821,-147.2800,-127.0500,48.9300
216113,0.7779,-0.0293,-0.5251,-75.9500,-100.8700,11.4800
216157,0.7437,0.0054,-0.5675,-73.5700,-110.6700,24.7800
216201,0.6398,0.0288,-0.6954,-5.1100,-78.4700,-4.2700
216244,0.6134,0.0337,-0.7696,-8.6100,-90.4400,11.4800
216288,0.5290,0.0527,-0.8389,42.6300,-36.1900,11.4800
216332,0.5187,-0.0142,-0.8872,96.6000,6.0900,28.7000
216375,0.5451,-0.1825,-0.9287,100.1000,58.3100,43.6800
216419,0.6007,-0.3396,-0.9409,102.1300,199.5000,-2.8000
216463,0.7706,-0.3231,-0.6876,-79.1000,145.3200,58.8000
216507,0.9906,-0.5158,-0.5402,-112.4200,134.3300,75.3900
216551,1.0063,-0.4387,-0.3084,-146.9300,93.5200,16.0300
216595,0.9848,-0.2635,-0.2664,-122.5700,32.6200,15.3300
216639,0.9926,-0.2855,-0.2674,-129.3600,2.8000,-12.6700
216682,0.9706,-0.1815,-0.3079,-104.5800,-32.0600,-20.2300
216726,0.9272,-0.1103,-0.3426,-130.9000,-70.2100,-48.0900
216770,0.8862,0.0488,-0.3997,-98.1400,-79.5900,-57.1200
216814,0.8135,0.1137,-0.4646,-57.7500,-88.3400,-58.9400
216858,0.8760,0.1845,-0.4895,16.2400,-104.6500,-64.1900
216902,0.6076,0.1181,-0.6520,48.9300,-103.5300,-84.0000
216946,0.5890,0.2220,-0.7803,60.2700,-79.1700,-63.2800
216990,0.4636,0.1747,-0.9853,52.5700,-45.0100,-37.1700
217034,0.4875,0.1884,-0.9599,53.8300,-5.9500,-7.9100
217077,0.5207,0.1196,-0.9614,14.9100,20.7900,18.1300
217121,0.5719,0.1005,-0.8804,40.9500,54.7400,8.2600
217164,0.6271,0.0059,-0.8013,65.1000,109.6200,32.2700
217208,0.7652,0.0307,-0.6939,76.5800,125.7200,31.5700
217251,0.8306,-0.0971,-0.5983,212.4500,173.1100,8.0500
217295,0.8540,-0.2152,-0.4870,234.1500,204.7500,1.5400
217339,0.7964,-0.0815,-0.1542,377.7200,319.4100,-11.6900
217383,0.8730,-0.2752,0.1479,209.9300,245.4900,63.4900
217427,0.9745,-0.2762,0.4548,196.9800,195.9300,17.5700
217471,1.0590,-0.5290,0.4587,9.1000,49.6300,-1.4000
217514,0.9306,-0.3411,0.4402,-14.0700,-2.1000,-37.7300
217558,0.8901,-0.2938,0.3992,-6.1600,7.2800,-25.7600
217602,0.9130,-0.2752,0.4119,6.4400,12.1100,-45.8500
217646,0.9423,-0.3016,0.4246,-44.0300,-13.1600,-53.9700
217690,0.9101,-0.1723,0.4372,-65.9400,-24.0100,-53.2700
217734,0.8950,-0.1249,0.4285,-45.8500,-23.0300,-48.2300
217778,0.8760,-0.0683,0.4197,-10.5000,-21.2800,-43.4000
217822,0.8584,-0.0625,0.3719,-47.5300,-27.4400,-18.7600
217866,0.8223,0.0205,0.3772,-65.3800,-4.2700,33.3200
217910,0.8564,-0.0669,0.3924,-2.8700,-0.4200,54.9500
217953,0.8916,-0.1035,0.4085,54.1100,5.6700,57.7500
217996,0.8877,-0.1479,0.4592,102.3400,-14.5600,77.2100
218040,0.9418,-0.2708,0.4865,102.0600,-42.7000,51.1000
218083,0.9565,-0.3162,0.4895,27.6500,-116.2000,24.9900
218127,0.9306,-0.2972,0.3860,-44.1000,-192.3600,-7.5600
218171,0.9443,-0.3079,0.1401,-97.7200,-249.2700,0.4200
218215,0.8969,-0.3328,-0.1420,-103.8100,-284.3400,-13.2300
218259,0.8154,-0.2079,-0.4597,-72.2400,-265.7200,-11.6200
218303,0.6710,-0.2079,-0.5968,-62.4400,-281.4700,-17.1500
218347,0.4987,-0.1157,-0.8852,-44.2400,-188.8600,-11.9700
218391,0.5109,-0.1093,-0.9462,-8.5400,-107.6600,3.2900
218434,0.4768,-0.1132,-0.9443,2.1000,-79.8000,-5.2500
218477,0.4368,-0.1440,-0.9853,-5.6000,-43.9600,3.0100
218520,0.4368,-0.1020,-0.9892,-29.4000,-17.4300,13.6500
218564,0.4670,-0.1303,-0.9496,14.6300,-4.4100,5.3200
218608,0.4821,-0.1347,-0.9414,-11.0600,1.9600,6.0900
218651,0.4924,-0.1357,-0.9389,-33.3900,20.2300,15.6100
218695,0.5456,-0.1523,-0.8906,-35.6300,24.6400,4.4800
218739,0.5197,-0.0859,-0.8642,-52.9200,16.1000,-3.3600
218783,0.5466,-0.0361,-0.8452,-38.3600,20.5100,2.8000
218827,0.5724,-0.0195,-0.8208,-38.1500,17.9200,7.0700
218871,0.5924,-0.0137,-0.8535,-23.5200,21.0000,5.4600
218915,0.5958,0.0146,-0.8340,-47.9500,26.0400,7.9100
218958,0.6085,0.0449,-0.8189,-43.6800,31.4300,14.6300
219001,0.6012,0.0605,-0.8433,-28.8400,63.1400,10.6400
219045,0.6237,0.0664,-0.7549,-47.6700,79.2400,29.4700
219089,0.7159,0.1254,-0.6866,-19.8800,99.3300,42.4900
219133,0.7549,0.0664,-0.5861,-6.3700,95.2000,52.8500
219176,0.7706,0.0698,-0.4982,24.9900,97.6500,60.1300
219220,0.7837,0.0605,-0.4421,36.7500,94.3600,81.9000
219264,0.8091,-0.0229,-0.3484,39.6900,84.4900,88.1300
219308,0.8613,-0.2128,-0.3548,5.7400,75.9500,98.7000
219352,0.9204,-0.3099,-0.2689,-9.0300,76.9300,97.9300
219395,0.9331,-0.4172,-0.2094,-26.4600,64.6800,98.4900
219439,1.0072,-0.5202,-0.1937,-25.4100,57.6800,72.3100
219483,1.0263,-0.5388,-0.0659,-39.8300,34.4400,20.5100
219527,0.9765,-0.5212,-0.1005,-7.4200,7.6300,1.6800
219571,0.9238,-0.5148,-0.1000,-18.7600,-6.3700,-17.3600
219615,0.9326,-0.4831,-0.1108,-20.1600,-13.3000,-46.0600
219659,0.9038,-0.4133,-0.1030,-57.9600,-41.0900,-34.8600
219703,0.9101,-0.2699,-0.2157,-77.3500,-39.0600,-43.5400
219747,0.9121,-0.1771,-0.2669,-50.9600,-60.6900,-23.4500
219791,0.8960,-0.1850,-0.3382,-48.0900,-77.2800,-42.0700
219834,0.8472,-0.1503,-0.4982,-48.0200,-59.9200,-42.3500
219878,0.8203,-0.0532,-0.6988,-65.4500,-20.0200,-3.9200
219922,0.8755,-0.1557,-0.6095,-72.3100,24.4300,42.2800
219966,1.0102,-0.3758,-0.3924,-104.5800,32.1300,3.0100
220010,1.0131,-0.2728,-0.2372,-73.9900,-9.3100,-37.2400
220054,0.9150,-0.2962,-0.3582,-75.9500,-15.4700,-57.8200
220098,0.9394,-0.0371,-0.3621,-49.1400,-25.2000,-62.6500
220142,0.8740,0.0639,-0.4763,-26.6700,-27.2300,-64.1900
220186,0.8072,0.3294,-0.5412,-7.0700,-14.0700,-30.1000
220229,0.7769,0.4221,-0.5436,40.9500,22.0500,30.7300
220272,0.8760,-0.0029,-0.5539,2.2400,27.5800,47.8100
220315,1.0799,-0.3289,-0.4002,-37.9400,27.3700,-3.3600
220359,1.0804,-0.3270,-0.3304,-53.3400,-4.2000,-62.7900
220403,0.9213,0.0142,-0.3797,-39.6200,-8.1900,-88.4800
220446,0.7149,0.5319,-0.3538,1.6100,1.0500,-51.4500
220489,0.6983,0.6744,-0.4465,43.6800,3.0800,8.3300
220532,0.8091,0.4070,-0.4846,4.6900,7.9100,42.3500
220576,0.9955,-0.0107,-0.3880,-3.7800,14.3500,36.4000
220619,1.0682,-0.1835,-0.3284,-3.5000,8.7500,3.5000
220662,0.9975,-0.0571,-0.3270,-10.4300,-11.6200,-36.9600
220705,0.7979,0.4397,-0.3021,-19.3900,-21.1400,-40.7400
220749,0.7208,0.5685,-0.3743,14.5600,-21.7700,6.9300
220792,0.8926,0.2811,-0.3850,38.3600,-22.3300,31.2900
220836,0.9614,-0.0576,-0.4094,62.3000,-32.4800,6.3000
220879,0.9731,-0.0434,-0.5178,25.9000,-21.1400,-20.6500
220923,0.9360,0.1205,-0.4612,11.6900,-15.4000,-25.4800
220967,0.8228,0.3001,-0.4807,15.0500,-24.2900,-17.5000
221011,0.8111,0.2967,-0.5885,7.4200,-14.6300,-5.1800
221055,0.8511,0.1635,-0.6159,-18.9700,-0.4900,14.8400
221099,0.9414,0.1298,-0.5197,-18.4800,6.8600,-0.6300
221143,0.9555,0.0127,-0.4738,3.6400,2.8700,-18.6200
221187,0.9008,0.1347,-0.5383,-5.1800,8.6800,-19.3200
221231,0.8355,0.3099,-0.4372,-8.6100,3.7100,-12.3200
221275,0.7735,0.4338,-0.4665,-19.4600,-8.9600,-14.0000
221319,0.8130,0.3157,-0.5388,-6.0200,-12.6700,8.4700
221363,0.8716,0.1796,-0.4885,-13.1600,4.8300,30.8700
221407,1.0228,0.2508,-0.4768,-9.8000,9.1700,9.6600
221451,0.8638,0.1088,-0.2616,3.2900,34.0200,22.5400
221495,0.8774,0.0976,-0.3821,27.9300,-26.5300,-3.0100
221539,0.8501,0.1801,-0.4631,56.0000,8.7500,4.0600
221583,0.9609,0.2269,-0.4963,67.6900,-2.8700,9.8000
221626,0.8784,0.1357,-0.5173,19.4600,-6.8600,10.0100
221670,0.8847,0.1000,-0.4812,13.2300,6.4400,13.8600
221714,0.9052,0.1244,-0.4353,5.6700,5.8100,19.8100
221757,0.9311,0.0722,-0.4407,10.4300,8.1900,12.3200
221801,0.9379,0.0503,-0.4631,2.6600,6.0900,-2.3800
221844,0.9311,0.0473,-0.5041,-4.6900,5.9500,2.3100
221887,1.0106,0.2957,-0.5065,12.4600,8.1200,5.9500
221931,0.9277,0.0908,-0.4192,-18.9700,8.7500,-0.4900
221974,0.8979,0.1127,-0.4211,-19.6700,7.9800,-0.0700
222017,0.9311,0.1318,-0.3792,-33.0400,2.9400,3.4300
222061,0.9584,0.0498,-0.3601,-29.9600,11.5500,-3.0800
222105,0.9843,0.0342,-0.3782,-31.2900,-1.1200,-15.0500
222149,0.9355,0.0834,-0.3909,-50.1200,-12.4600,-24.2900
222193,0.8501,0.3533,-0.3680,-41.5100,-13.5800,-19.9500
222237,0.7764,0.4680,-0.4255,-32.2700,-0.8400,12.6000
222281,0.8891,0.3182,-0.3758,-12.1100,14.5600,37.9400
222325,1.0619,-0.1937,-0.3694,-15.8900,19.9500,23.1000
222369,1.1717,-0.2894,-0.2625,-50.3300,-2.0300,-24.2200
222413,1.0087,-0.0190,-0.3060,-32.9000,-6.0200,-55.2300
222457,0.7950,0.4455,-0.2923,-43.8200,-14.1400,-57.5400
222500,0.6007,0.7266,-0.2738,-20.4400,-8.6100,-9.5900
222543,0.7788,0.4407,-0.2757,1.5400,12.1800,40.9500
222587,1.0370,-0.0366,-0.2899,-2.3100,7.3500,28.8400
222630,1.1219,-0.1781,-0.2835,-25.5500,-4.9000,-18.9000
222674,0.9457,0.2196,-0.2635,-23.0300,-17.9900,-51.8000
222718,0.6730,0.7598,-0.2786,-9.8000,-15.3300,-23.1700
222762,0.6793,0.7525,-0.3479,10.0100,-1.6100,36.5400
222806,0.9326,0.2728,-0.3650,1.4000,10.2200,56.4200
222850,1.1009,-0.1049,-0.2884,-12.9500,11.2700,30.8000
222894,1.1043,-0.1401,-0.2259,-11.1300,3.7800,-7.7000
222938,0.9482,0.2015,-0.2074,-4.8300,-10.8500,-31.8500
222982,0.7891,0.4997,-0.2865,1.3300,-12.8100,-14.7000
223026,0.8150,0.5388,-0.2747,2.1000,-2.0300,17.2900
223069,0.9531,0.2094,-0.2567,6.2300,6.0900,26.5300
223112,1.0394,0.0376,-0.2313,-11.2000,-6.5100,5.3200
223155,0.9628,0.1830,-0.2816,9.0300,-10.2900,-8.9600
223198,0.9321,0.2816,-0.2996,2.6600,-9.4500,-6.2300
223241,0.8960,0.3460,-0.2904,3.5700,-10.7800,-0.9100
223284,0.9028,0.3026,-0.2743,3.2200,-6.3000,8.4700
223327,0.9472,0.2235,-0.2664,7.9800,-7.0700,7.4900
223370,0.9477,0.2064,-0.2567,-0.4900,-11.7600,3.6400
223413,0.9350,0.2191,-0.2655,14.9100,-10.4300,4.8300
223456,0.9301,0.2396,-0.2938,15.8900,-13.7900,4.1300
223499,0.9072,0.2723,-0.3030,24.7800,-8.8900,8.8200
223541,0.8994,0.3065,-0.2743,60.9700,-1.1900,28.6300
223584,0.8560,0.2596,-0.1942,126.4900,6.3700,66.5000
223628,0.8647,0.2006,-0.3572,132.1600,14.0700,78.7500
223672,0.9453,-0.0800,-0.4216,77.2800,20.8600,69.7900
223716,1.0668,-0.2006,-0.3504,6.9300,-3.0100,34.7200
223759,1.0433,-0.1947,-0.3050,-11.0600,-24.6400,-7.3500
223803,0.9858,-0.1566,-0.3118,-21.0700,-35.0700,-19.4600
223847,1.0326,-0.1039,-0.3245,-12.6700,-48.1600,-27.9300
223891,0.9701,-0.0122,-0.3894,5.2500,-58.7300,-47.6000
223935,0.8789,0.0044,-0.4197,-17.0800,-75.7400,-48.2300
223979,0.7920,0.1264,-0.4309,-7.5600,-70.9100,-37.1000
224023,0.8296,0.1674,-0.5446,-34.3700,-65.8000,-45.1500
224067,0.7569,0.1640,-0.5822,-10.8500,-56.9100,-23.5200
224111,0.7476,0.0942,-0.6983,31.7100,-36.1900,2.1700
224155,0.7871,0.0669,-0.6915,-29.8200,-37.3800,-14.3500
224199,0.7993,0.1586,-0.6422,-9.2400,-19.3900,-17.0100
224243,0.7871,0.1254,-0.6398,-19.9500,-24.9900,-14.8400
224287,0.7471,0.1552,-0.6124,-4.4100,-11.9700,-11.6200
224331,0.7476,0.1615,-0.6120,-4.6200,-2.5200,-6.1600
224374,0.7413,0.1942,-0.5988,7.3500,0.9100,-3.1500
224416,0.7466,0.1596,-0.6320,19.6700,2.3800,-0.3500
224460,0.7442,0.1615,-0.7188,45.9900,34.2300,-5.0400
224503,0.7569,0.1113,-0.8945,94.5700,80.7800,-18.9700
224547,0.8008,0.0156,-0.8179,75.4600,131.3200,7.8400
224591,0.9057,0.0029,-0.5758,63.8400,151.3400,-2.3100
224634,0.9531,0.0527,-0.3026,93.0300,144.1300,-14.0700
224678,0.9292,0.0781,-0.1440,110.9500,110.3200,-16.8000
224722,0.9755,0.1093,-0.0449,127.3300,92.5400,-20.4400
224766,0.9658,0.1113,0.0073,98.9100,52.3600,-26.4600
224809,0.9487,0.1708,0.1308,96.4600,0.2800,-17.9900
224852,0.9150,0.0766,-0.0508,94.9900,-6.1600,-14.3500
224895,0.9418,0.0512,-0.1557,53.1300,11.6200,-3.2900
224939,1.0419,0.0366,-0.0932,14.2100,2.4500,-1.6100
224982,1.0668,-0.0473,-0.2084,5.3900,-3.8500,-19.4600
225025,1.0155,0.0351,-0.1420,-5.1100,-3.9200,-19.8800
225068,1.0253,0.0747,-0.0986,-1.6100,-2.7300,-18.6200
225111,0.9833,0.1166,-0.1020,26.7400,5.6000,-15.1200
225154,0.9677,0.1147,-0.1166,46.1300,19.1800,-10.6400
225198,1.0219,0.0981,-0.0483,48.7900,29.2600,-12.6700
225242,1.0136,0.1015,-0.0317,36.0500,16.1000,-22.3300
225285,1.0282,0.1078,-0.0781,8.8900,-0.2800,-21.9100
225328,0.9994,0.1464,-0.0844,-6.9300,-4.2000,-22.4700
225371,0.9282,0.2547,-0.0927,2.0300,-0.4900,2.0300
225414,0.9653,0.1830,-0.0449,-18.2700,-4.6200,22.2600
225458,0.9750,0.1615,0.0132,-56.6300,-29.1200,18.3400
225501,1.0155,0.1200,-0.0571,-68.2500,-40.3200,16.5200
225545,1.0209,0.1015,-0.1830,-86.1700,-51.3800,16.8000
225589,1.0111,0.0683,-0.1357,-85.6100,-49.0000,11.8300
225633,1.0228,0.0805,-0.1196,-61.6000,-23.6600,13.3000
225677,0.9965,0.0927,-0.0854,-22.4000,-12.5300,5.6000
225721,0.9204,0.1410,-0.1200,-3.2200,9.2400,21.0000
225764,0.8306,0.2196,-0.1430,84.0000,96.7400,79.9400
225808,1.1043,-0.1147,-0.0449,-15.3300,30.8000,58.3800
225852,1.0736,-0.0791,-0.0083,-50.6100,5.7400,34.9300
225895,1.0429,-0.0839,0.0303,-37.6600,-13.1600,23.5900
225938,0.9916,-0.0834,0.0303,-46.4800,-10.2200,20.5100
225982,1.0072,-0.0834,0.0444,-54.8800,-22.7500,24.9900
226026,1.0155,-0.0893,-0.0059,-38.0800,-30.5900,20.9300
226070,0.9999,-0.1566,-0.0625,-22.2600,-28.7700,15.8200
226113,1.0575,-0.1884,-0.1249,-33.5300,-40.7400,5.9500
226157,1.0609,-0.1810,-0.1430,-29.9600,-52.1500,-16.0300
226200,1.0433,-0.1386,-0.2064,-12.9500,-52.8500,-29.2600
226244,1.0004,-0.1098,-0.2157,-7.7000,-56.0000,-35.9100
226288,1.0160,-0.0732,-0.2884,-13.0900,-47.0400,-41.2300
226332,0.9858,-0.0381,-0.3245,-17.5000,-51.9400,-54.2500
226375,0.9423,0.0259,-0.3523,-31.1500,-58.3800,-46.6900
226419,0.9457,0.0854,-0.3728,-28.7700,-43.8900,-42.2800
226463,0.9223,0.1401,-0.4158,-28.9800,-35.7000,-30.8000
226507,0.8769,0.1405,-0.4407,-35.5600,-26.3900,-39.5500
226551,0.8852,0.2499,-0.4504,-44.2400,-18.5500,-31.7800
226595,0.8779,0.2660,-0.4514,-33.1800,-11.2700,-31.3600
226639,0.8462,0.3396,-0.4470,-28.8400,-0.2100,-25.2000
226683,0.8340,0.3621,-0.4402,-8.6100,19.8100,-16.6600
226726,0.8423,0.3528,-0.4026,2.5900,28.2800,-1.2600
226769,0.8574,0.3333,-0.3758,34.3700,41.3700,8.7500
226813,0.9233,0.2806,-0.3465,22.7500,31.5700,3.7800
226857,0.8886,0.3265,-0.3045,49.9100,42.1400,1.8900
226901,0.9233,0.2440,-0.2708,41.0200,40.5300,17.0100
226945,0.9745,0.2152,-0.2313,23.8000,27.5100,9.1700
226989,0.9560,0.1976,-0.2518,25.9000,23.8700,-0.4900
227033,0.9726,0.1732,-0.2123,-7.4200,16.8000,-4.1300
227077,0.9662,0.2118,-0.2074,-3.3600,19.4600,-8.1900
227121,0.9701,0.1918,-0.1967,-12.6700,21.3500,-5.3900
227165,0.9511,0.2455,-0.1161,-8.6800,24.3600,12.6000
227208,0.9667,0.1986,-0.1444,-0.7000,26.9500,7.2100
227252,0.9570,0.2342,-0.0610,-22.1900,25.8300,-0.2800
227296,0.9506,0.2523,-0.0688,-0.4900,32.4100,7.3500
227340,0.9794,0.2420,-0.0517,0.2100,38.9900,-6.5100
227383,1.0019,0.2333,-0.0434,20.5800,35.0000,14.6300
227427,0.9921,0.1815,-0.0239,23.4500,28.3500,12.8800
227471,1.0214,0.1786,0.0127,14.3500,17.7100,1.1200
227515,1.0028,0.1820,0.0747,4.7600,-0.7000,-5.6700
227558,0.9579,0.2206,0.0493,14.4200,-1.5400,-5.2500
227601,0.9867,0.2225,0.0381,2.3100,-3.5000,-2.5200
227644,0.9882,0.2264,0.0303,10.0100,-14.4200,-5.6000
227688,0.9692,0.2030,0.0063,-2.5200,-18.8300,-5.3200
227731,1.0204,0.2313,0.0112,11.2700,-25.5500,-6.7900
227775,0.9887,0.2054,-0.1215,29.9600,-24.1500,-15.4000
227819,0.9682,0.2601,-0.1318,5.9500,-7.3500,-5.2500
227862,0.9736,0.2499,-0.0288,5.5300,-6.0200,-2.4500
227905,0.9658,0.2396,-0.0224,6.7900,-16.6600,-5.7400
227949,0.9687,0.2469,-0.0786,0.4200,-7.7700,3.2200
227992,0.9936,0.2416,-0.0693,5.6000,-8.4000,-0.7000
228035,0.9936,0.2411,-0.0825,12.6000,-14.6300,-1.4000
228079,0.9902,0.2464,-0.0815,11.7600,-15.8200,-6.1600
228122,1.0492,0.2011,-0.0795,17.9200,-14.7700,-1.3300
228166,0.9838,0.2469,-0.0825,16.4500,-23.3100,-4.2000
228209,0.9882,0.2528,-0.0898,27.5100,-34.1600,-14.4200
228253,0.9531,0.2786,-0.1186,19.0400,-36.7500,-22.3300
228297,0.9462,0.2962,-0.1078,23.5200,-57.9600,-25.4100
228341,0.9370,0.2782,-0.2059,20.8600,-58.3100,-29.3300
228385,0.9121,0.3216,-0.2752,23.0300,-65.0300,-22.3300
228429,0.8745,0.3377,-0.2957,25.9700,-60.5500,-20.0200
228473,0.8599,0.3699,-0.3714,27.6500,-54.4600,-22.1900
228517,0.8018,0.3431,-0.3841,20.3700,-64.1900,-23.2400
228560,0.7754,0.3665,-0.4416,17.3600,-71.4700,-18.8300
228604,0.7857,0.3660,-0.4690,12.8800,-74.2000,0.7000
228647,0.7618,0.3343,-0.4817,24.1500,-91.0700,-3.5000
228690,0.7003,0.3348,-0.5641,47.7400,-95.6900,-0.7000
228733,0.6905,0.2933,-0.6237,60.1300,-99.2600,7.2800
228777,0.6183,0.2196,-0.7149,77.0700,-110.1800,-0.7000
228821,0.5324,0.2176,-0.7950,67.2000,-125.2300,3.3600
228865,0.4392,0.1498,-0.8857,78.2600,-107.7300,2.8700
228908,0.3733,0.0849,-1.1204,62.3000,-86.5900,6.1600
228951,0.3167,0.0586,-1.0248,53.3400,-67.6200,2.9400
228995,0.2723,0.0429,-1.0848,24.0100,-41.2300,10.5000
229039,0.2869,0.0063,-1.0180,11.6900,-23.1700,3.2200
229082,0.2679,0.0527,-1.0224,1.0500,-9.5900,-2.6600
229125,0.3021,0.0415,-0.9828,-14.2800,-3.9900,9.7300
229167,0.2913,0.0425,-1.0106,11.9000,-9.8700,2.0300
229210,0.3543,0.0771,-0.9726,-26.8100,-14.4200,2.7300
229253,0.2591,0.0781,-0.9999,20.0900,-0.0700,8.3300
229296,0.3084,-0.0200,-0.9892,6.8600,1.2600,22.8200
229339,0.2303,0.0991,-0.9984,18.8300,3.9200,1.3300
229382,0.2557,0.0420,-1.0531,-0.0700,19.5300,21.0000
229425,0.2826,0.0054,-1.0185,-7.6300,35.5600,21.3500
229469,0.2879,0.0439,-1.0521,-31.2900,52.5000,32.3400
229512,0.3265,0.0405,-1.0160,-40.9500,100.8000,54.4600
229555,0.4494,0.0171,-0.9238,-25.8300,122.4300,61.8100
229599,0.5451,0.0434,-0.7935,-8.1200,113.7500,41.7900
229642,0.6242,0.0083,-0.6974,-27.5100,102.2000,58.7300
229685,0.7056,-0.0268,-0.6905,-15.8900,100.3800,51.3800
229729,0.7647,-0.0498,-0.6520,-31.9900,88.5500,61.0400
229772,0.8272,-0.1113,-0.6046,-39.3400,88.2700,42.4900
229815,0.8428,-0.0712,-0.5075,-43.7500,80.6400,30.1000
229858,0.8945,-0.0859,-0.4729,-42.0700,68.0400,35.4200
229902,0.9482,-0.0952,-0.3782,-65.0300,42.5600,24.7100
229946,0.9662,-0.0747,-0.3577,-45.1500,38.2200,8.1900
229990,0.9521,-0.0693,-0.3494,-54.2500,12.7400,-10.6400
230034,0.9501,-0.0112,-0.4260,-37.6600,14.0000,-12.3200
230078,0.9540,-0.0102,-0.3762,-53.4100,13.7200,-13.7200
230122,0.9614,0.0444,-0.3762,-48.1600,10.5000,-15.1200
230166,0.9414,0.0786,-0.3919,-44.5200,11.9000,-16.7300
230209,0.9389,0.1196,-0.3611,-43.1900,17.5000,-11.2700
230253,0.9345,0.1708,-0.3260,-2.5900,21.9100,0.4900
230297,0.9457,0.1684,-0.3436,22.0500,38.8500,8.6100
230341,0.9716,0.1088,-0.2918,21.4200,44.4500,15.7500
230385,0.9819,0.0878,-0.2718,34.8600,45.9200,18.1300
230429,1.0028,-0.0200,-0.2084,-9.3800,31.7800,18.9700
230473,1.0155,0.0176,-0.1020,-4.1300,26.9500,20.5800
230517,1.0170,-0.0063,-0.1000,24.2900,30.5200,2.9400
230560,1.0219,-0.0010,-0.1074,28.4200,19.9500,-2.5200
230604,1.0453,-0.0468,-0.0444,-1.8900,4.9700,-16.1000
230648,1.0141,0.0303,0.0395,12.7400,-21.0700,-34.0900
230692,0.9770,0.0752,0.1035,28.2800,-52.5700,-42.5600
230736,1.0199,0.1166,0.0386,52.0100,-82.8100,-45.7800
230780,0.9555,0.1308,-0.0937,70.9800,-134.6100,-57.4000
230824,0.8872,0.1440,-0.3240,93.5200,-160.9300,-56.1400
230868,0.7315,0.0717,-0.4446,80.8500,-157.0100,-38.1500
230912,0.7017,0.1293,-0.5973,39.1300,-166.7400,-24.2200
230956,0.6061,0.0956,-0.7847,71.1200,-146.4400,-37.6600
231000,0.5558,0.0834,-0.8896,40.6700,-100.7300,-33.0400
231043,0.5061,0.1283,-0.9101,24.3600,-104.1600,-13.1600
231087,0.4538,0.0966,-0.9653,31.2200,-70.1400,-9.6600
231130,0.5817,0.0654,-0.9511,32.4100,-54.0400,-6.7200
231174,0.4075,0.0449,-0.9770,19.7400,-51.1000,-9.1700
231217,0.3831,0.0634,-0.9936,12.1100,-37.2400,-2.5900
231261,0.3431,0.0444,-0.9692,17.6400,-24.2900,-9.1700
231304,0.3484,0.0420,-0.9780,7.9800,-19.5300,-5.3200
231347,0.2513,0.0215,-0.9731,21.9800,-12.0400,-10.8500
231391,0.3367,0.0073,-1.0214,37.5900,8.9600,-25.1300
231434,0.3621,-0.0425,-1.0297,59.9900,42.7700,-42.9100
231478,0.3884,-0.0630,-1.0146,61.1800,67.1300,-59.1500
231522,0.4255,-0.0795,-0.9975,74.4800,106.2600,-72.7300
231566,0.4982,-0.1191,-0.9604,61.4600,154.0000,-87.1500
231610,0.6007,-0.1996,-0.8716,54.1100,183.1200,-98.1400
231654,0.6842,-0.0610,-0.7232,81.8300,220.5000,-123.3400
231698,0.7569,0.0195,-0.5714,108.3600,236.4600,-158.0600
231742,0.7910,0.1620,-0.3587,158.5500,270.7600,-191.3100
231786,0.8364,0.2811,-0.1210,106.8900,230.0200,-177.6600
231830,0.8677,0.3889,0.1210,-30.1700,141.1900,-78.0500
231874,0.9199,0.4226,0.2762,-18.9700,103.3900,-51.0300
231917,0.9428,0.3816,0.2469,-12.8800,37.0300,-41.6500
231961,0.9013,0.4055,0.2782,-9.8000,19.6000,-34.1600
232004,0.9121,0.4094,0.2669,-13.5100,5.2500,-26.7400
232047,0.8901,0.4485,0.2933,-17.4300,-2.5200,-26.2500
232091,0.9091,0.4470,0.2982,-11.4800,-17.0800,-20.5800
232135,0.8955,0.4465,0.2635,-9.2400,-30.5900,-15.9600
232179,0.8760,0.4651,0.2079,1.6800,-22.9600,-17.2200
232223,0.7964,0.5280,0.1342,4.3400,-14.4200,-2.3800
232266,0.8184,0.4963,0.1620,-0.5600,-6.5800,4.6200
232310,0.8789,0.4524,0.1493,-1.4000,-1.7500,2.1700
232353,0.8901,0.4421,0.1464,-10.3600,-9.1700,1.1200
232397,0.8442,0.4773,0.1571,-4.9700,-8.4000,1.0500
232440,0.8599,0.4846,0.1703,-7.5600,-11.2700,3.7100
232484,0.9555,0.4226,0.2079,-7.4200,-11.4100,7.9100
232528,0.9326,0.4114,0.1820,2.1000,-13.2300,-7.2800
232572,0.8481,0.4787,0.1405,-9.0300,-15.4000,3.8500
232616,0.8233,0.5353,0.1835,-20.9300,-24.8500,23.1000
232660,0.8511,0.4958,0.1893,-33.5300,-49.0000,55.7900
232704,0.9301,0.4890,0.2640,-18.2000,-105.9100,30.1700
232748,0.9789,0.4719,0.1249,19.5300,-153.5800,68.0400
232791,0.9101,0.3309,-0.0176,-34.5100,-182.9800,116.4100
232835,0.8877,0.2547,-0.1596,-73.6400,-166.4600,146.0900
232879,0.8296,0.1381,-0.2460,-145.2500,-231.2800,167.3000
232923,0.8052,0.0737,-0.5270,-136.4300,-223.3700,172.3400
232967,0.6939,-0.0322,-0.7032,-118.8600,-175.9100,149.8000
233011,0.6856,-0.0888,-0.8486,-91.8400,-123.9000,94.5000
233055,0.6344,-0.0527,-0.8535,-61.8800,-99.3300,52.1500
233099,0.5900,0.0146,-0.8784,-42.7700,-63.2800,26.1100
233143,0.5871,0.0190,-0.8745,-24.1500,-35.1400,17.8500
233187,0.5773,0.0107,-0.8740,2.8700,-11.6900,5.8800
233230,0.5783,0.0088,-0.8711,-4.8300,7.8400,2.6600
233273,0.5915,-0.0083,-0.8525,3.5000,28.8400,1.3300
233316,0.6403,-0.0410,-0.8252,81.9700,76.6500,-49.1400
233360,0.6954,-0.0508,-0.7842,143.6400,110.5300,-92.1900
233404,0.7374,-0.0020,-0.6520,155.8200,117.1800,-99.1200
233448,0.8159,-0.0532,-0.5851,212.5200,146.9300,-152.6700
233492,0.8438,0.0112,-0.5036,180.7400,120.1200,-155.5400
233536,0.8686,0.0673,-0.3914,139.7200,113.1900,-130.9700
233580,0.9350,0.0820,-0.2899,100.6600,95.5500,-87.2900
233624,0.9984,0.1249,-0.1932,57.2600,37.8000,-26.3900
233667,1.0146,0.0468,-0.2201,51.2400,16.6600,-14.3500
233711,1.0175,0.0381,-0.2372,22.4000,22.9600,-20.7200
233754,1.0102,0.0512,-0.2123,20.5100,14.5600,-24.6400
233798,1.0082,0.0815,-0.2011,9.1700,3.0100,-10.9200
233841,1.0097,0.0542,-0.1972,25.7600,15.5400,-32.9700
233885,1.0136,0.0630,-0.2011,77.2800,48.7900,-121.9400
233929,0.9643,0.2347,-0.1571,127.6100,95.5500,-194.3200
233973,0.8999,0.3611,-0.1566,64.0500,70.7000,-171.6400
234017,0.8442,0.6222,-0.0922,13.7200,27.5800,-105.9100
234061,0.8584,0.5300,-0.0615,-0.6300,7.7000,-40.1800
234104,0.8721,0.5290,-0.0278,-17.5000,-3.5000,-14.1400
234147,0.8642,0.5568,0.0049,-21.2100,-21.2100,-0.3500
234190,0.8545,0.5485,-0.0405,-14.3500,-16.7300,4.4800
234234,0.8603,0.5236,-0.0342,-14.0000,-25.0600,15.0500
234278,0.8823,0.4602,-0.0566,-30.6600,-43.1900,33.6000
234322,0.9448,0.5251,-0.0288,-128.8700,-112.2100,100.8700
234366,0.9306,0.3187,-0.1137,-23.2400,-30.5900,4.3400
234409,0.9038,0.3802,-0.0844,-3.0800,-23.5200,-24.9900
234453,0.9257,0.5197,-0.1630,19.5300,11.7600,-77.1400
234497,0.8018,0.4778,-0.0093,33.4600,7.6300,-92.3300
234541,0.7818,0.6076,-0.1283,14.2100,-9.3100,-39.1300
234583,0.7013,0.7042,-0.1893,21.1400,-5.6000,-35.9800
234627,0.6905,0.6749,-0.1215,-4.4800,-26.2500,-1.8200
234670,0.7120,0.6520,-0.1908,6.5800,-10.7800,-2.1000
234714,0.7135,0.6578,-0.1659,-2.3800,1.1900,13.7200
234758,0.7935,0.6671,-0.0586,-8.8200,-32.9700,41.9300
234802,0.8242,0.5632,-0.1967,33.9500,-71.0500,52.7100
234846,0.8296,0.4929,-0.1674,-9.8700,-91.9800,67.5500
234889,0.8516,0.5051,-0.2450,-27.1600,-105.2100,99.5400
234933,0.8359,0.4426,-0.3831,-23.5200,-85.8200,79.1000
234977,0.8355,0.3640,-0.3958,-27.7900,-61.8100,56.6300
235021,0.8276,0.3777,-0.3777,-31.7100,-77.4200,75.1100
235065,0.8364,0.2962,-0.4724,-28.4900,-82.3900,78.6100
235109,0.8198,0.3396,-0.5051,-62.7200,-102.6900,85.5400
235153,0.8047,0.2577,-0.5022,-60.3400,-113.5400,87.7100
235197,0.7818,0.2699,-0.6115,-77.2800,-116.1300,83.4400
235241,0.7222,0.2328,-0.6656,-91.3500,-106.4700,82.8100
235285,0.6964,0.2518,-0.6481,-120.1900,-115.8500,87.6400
235329,0.6261,0.2962,-0.7008,-109.5500,-131.0400,90.4400
235373,0.5802,0.2757,-0.8174,-115.7800,-98.4200,88.4800
235416,0.5553,0.2923,-0.7852,-119.0700,-80.4300,68.2500
235460,0.5339,0.3509,-0.8603,-158.6200,-76.2300,110.3200
235504,0.5466,0.3850,-0.8032,-125.3000,-39.4800,58.3800
235548,0.5812,0.4831,-0.7540,-116.0600,-14.9800,57.3300
235592,0.5934,0.4636,-0.6891,-82.2500,-3.9200,26.3900
235636,0.6222,0.4904,-0.6417,-91.7700,-8.1200,29.8900
235680,0.6168,0.5202,-0.5758,-57.7500,9.4500,16.5900
235724,0.6290,0.5397,-0.5285,-55.5800,3.4300,7.1400
235768,0.6242,0.5807,-0.5212,-42.9100,0.9100,4.0600
235811,0.6090,0.6032,-0.5007,-39.7600,13.7900,11.6900
235855,0.6525,0.6232,-0.4904,-37.8700,11.0600,27.9300
235899,0.6437,0.5890,-0.4997,-32.6900,19.1100,16.5200
235943,0.6578,0.5856,-0.4621,-36.0500,26.3900,18.3400
235987,0.6647,0.5514,-0.4246,-38.2200,25.9700,27.8600
236031,0.6934,0.6076,-0.3709,-26.3200,33.9500,27.2300
236075,0.7540,0.5734,-0.3201,-2.2400,37.5200,22.1200
236118,0.7169,0.5397,-0.3133,6.5100,27.4400,21.9800
236162,0.7857,0.5622,-0.2757,-2.5200,29.6800,18.1300
236205,0.8262,0.5192,-0.2611,-8.5400,15.8200,10.0800
236249,0.7740,0.5705,-0.2513,-4.3400,17.2900,17.5700
236292,0.8184,0.5563,-0.1703,11.2700,20.6500,22.9600
236336,0.8618,0.5217,-0.1283,44.8000,3.0100,11.5500
236380,0.8652,0.4748,-0.1547,67.6200,-22.4700,-1.3300
236423,0.8447,0.5002,-0.1840,105.3500,-28.9800,-38.8500
236467,0.8013,0.4480,-0.2987,77.0000,-50.6800,-64.8900
236511,0.8794,0.5368,-0.3928,80.9900,-80.2900,-52.5700
236555,0.6593,0.4299,-0.5085,49.7000,-100.2400,-28.7700
236599,1.0004,0.6446,-0.4934,91.9800,-87.7100,-40.8800
236643,0.4675,0.4875,-0.6686,72.1700,-105.1400,-36.0500
236687,0.4616,0.4895,-0.6925,105.4200,-87.7800,-22.0500
236731,0.3870,0.4187,-0.8808,52.2900,-76.5800,-33.0400
236775,0.3675,0.4036,-0.8189,53.6900,-66.0800,-30.8000
236819,0.2562,0.3084,-0.8374,53.9700,-52.1500,-49.6300
236863,0.2684,0.3250,-0.9994,-7.3500,-37.9400,-3.9200
236907,0.2562,0.3938,-0.9633,19.3200,-29.7500,-22.4000
236951,0.2879,0.3079,-0.9301,23.5900,-37.1000,2.7300
236995,0.2220,0.3187,-0.9584,72.2400,-21.2100,-18.9000
237039,0.2191,0.2904,-0.9750,58.8000,-5.2500,-4.7600
237083,0.1752,0.2259,-1.1068,71.0500,19.6000,-34.0200
237126,0.1825,0.2518,-1.0038,78.9600,61.8800,-100.5200
237170,0.2645,0.1401,-0.9321,66.2900,57.1900,-29.1900
237214,0.3636,0.1049,-0.9736,70.2100,76.7200,-15.0500
237258,0.3963,0.1225,-0.9174,66.5000,111.0900,-45.9200
237302,0.4270,0.1425,-0.8086,140.5600,100.2400,-33.8100
237346,0.6549,-0.4563,-0.7403,45.5000,94.3600,11.9700
237390,0.6212,-0.0024,-0.8818,108.2200,70.1400,-0.2800
237434,0.6090,-0.0610,-0.8320,-59.3600,43.4000,42.5600
237478,0.6627,-0.2225,-0.6412,46.4800,17.4300,17.1500
237522,0.6852,-0.1576,-0.7125,8.4700,24.0800,4.8300
237566,0.6627,-0.2035,-0.7774,7.0700,18.4800,6.2300
237610,0.6969,-0.1957,-0.7042,0.0700,14.2100,25.9000
237654,0.7271,-0.1640,-0.6359,6.9300,11.0600,20.2300
237698,0.6969,-0.2113,-0.6603,19.7400,32.6900,25.7600
237742,0.7047,-0.2401,-0.6798,18.6900,31.7100,24.7100
237786,0.7144,-0.1674,-0.6198,-9.1700,26.7400,33.5300
237830,0.7105,-0.2918,-0.6446,-2.1700,46.5500,38.5700
237874,0.7788,-0.2391,-0.6251,-29.4700,30.8700,44.3800
237917,0.8096,-0.3235,-0.5305,-2.8000,37.3100,23.4500
237961,0.8623,-0.3196,-0.5383,-16.5900,54.3200,33.0400
238005,0.7603,-0.3748,-0.5187,-14.0000,46.0600,36.0500
238049,0.8535,-0.3777,-0.5256,-26.6000,29.3300,26.8800
238093,0.9438,-0.3084,-0.4704,-57.1900,25.6900,25.7600
238137,0.9170,-0.1703,-0.3845,-78.8200,20.1600,63.9100
238181,0.6964,-0.6486,-0.6910,-72.8700,12.8800,43.5400
238225,0.9082,-0.4011,-0.5222,-52.2900,14.9800,28.9800
238269,0.6725,-0.4612,-0.4011,-25.6900,4.9000,4.6200
238313,0.8032,-0.3689,-0.5036,18.5500,7.0000,-21.0700
238357,0.7910,-0.2874,-0.5636,7.3500,-1.8900,-37.2400
238401,0.8403,-0.2542,-0.4773,-12.7400,-24.0100,-26.1100
238445,0.8350,-0.2552,-0.5290,-105.0700,25.3400,10.7100
238489,0.8408,-0.2621,-0.5168,-61.1100,-1.7500,13.2300
238533,0.8618,-0.2499,-0.5090,-25.1300,4.8300,-4.7600
238577,0.8730,-0.1928,-0.5417,-85.4000,-17.5700,62.0900
238621,0.8755,-0.3216,-0.5573,-78.3300,9.5200,60.0600
238665,0.8135,-0.3040,-0.6041,-104.8600,-4.7600,55.3700
238708,0.8569,-0.2928,-0.5080,-70.4900,-23.0300,26.7400
238752,0.7735,-0.2494,-0.6051,-65.5200,-36.4000,18.3400
238796,0.6661,-0.3055,-0.4978,-80.8500,-32.6900,7.9100
238840,0.8452,-0.0693,-0.6749,-63.5600,-7.2100,9.8700
238884,0.7086,-0.1532,-0.5851,-22.1900,4.4100,-2.1000
238928,0.6647,-0.0805,-0.2645,-22.1900,-28.9800,7.0000
238971,0.8101,-0.1371,-0.4582,36.8200,-60.4100,8.4700
239015,0.6974,-0.2059,-0.8101,68.6000,-47.7400,-25.2000
239059,0.5607,-0.1718,-0.7823,-39.2700,-50.1900,38.7100
239103,0.7183,-0.1893,-0.9106,-31.2200,-70.5600,19.7400
239147,0.7193,-0.0791,-1.1268,-68.6700,2.5200,64.6800
239191,0.6671,-0.2704,-0.7735,-88.5500,86.8000,41.0200
239235,0.5470,-0.0849,-0.5793,-119.0000,51.9400,48.0900
239279,0.7754,-0.0786,-0.6422,-70.1400,60.6900,7.7000
239323,0.6798,-0.0503,-0.4436,-24.9200,53.4100,-39.1300
239367,0.8316,0.0220,-0.5183,11.6200,13.2300,-22.6100
239411,0.6969,-0.0493,-0.4514,15.4700,2.5200,-23.1700
239455,0.7906,-0.0098,-0.5963,19.0400,34.9300,-23.1700
239499,0.9345,-0.0410,-0.6041,49.7700,9.5200,-28.9100
239542,0.8433,0.0034,-0.5924,16.1000,56.2800,-40.3200
239586,0.7945,0.0893,-0.7398,-14.9800,86.5900,6.5100
239630,0.8955,0.0161,-0.4768,-32.6900,109.6200,60.4100
239674,1.0170,-0.1449,-0.3640,21.3500,77.2800,24.4300
239718,0.8804,0.0244,-0.1845,42.5600,-21.0700,-39.5500
239762,0.9706,-0.0771,-0.4680,61.3900,-10.5700,-42.5600
239806,0.8272,0.1591,-0.4094,-3.5000,5.9500,-40.3200
239849,0.9848,0.0122,-0.3504,-14.2100,11.2000,-2.4500
239893,0.9589,0.0249,-0.3572,-31.6400,-40.1100,8.2600
239937,0.9653,0.0132,-0.4392,-40.1800,-42.0700,-10.8500
239980,0.9760,0.0268,-0.4104,-63.6300,-11.1300,-4.4800
240024,0.9428,0.0669,-0.4006,-14.2100,19.3200,3.4300
240068,0.9160,0.0898,-0.3489,-11.1300,32.8300,-10.5700
240112,0.9618,0.0952,-0.3289,-4.4800,25.8300,-4.1300
240156,0.9584,0.0498,-0.2655,16.3100,7.8400,-2.8700
240199,0.9311,0.0722,-0.2733,30.9400,9.1700,0.6300
240243,0.9370,0.0698,-0.2694,44.4500,-9.6600,-7.9800
240286,0.9150,0.1957,-0.2503,34.8600,-33.6700,15.3300
240330,0.9482,0.0200,-0.4021,43.9600,1.6100,-8.1900
240373,0.9438,0.0488,-0.2294,36.4700,16.8700,-17.8500
240416,1.0150,0.0278,-0.3475,15.2600,-7.4200,-3.1500
240460,0.9404,0.0996,-0.3372,22.9600,18.3400,-3.2900
240504,0.9614,0.0322,-0.2303,-1.2600,-22.3300,20.5800
240548,0.9755,-0.0356,-0.4046,23.3100,-14.0000,1.7500
240592,0.9584,0.0922,-0.2894,28.9100,13.8600,2.5200
240636,0.9682,-0.0332,-0.3182,22.4000,-3.7100,0.6300
240680,0.9755,0.0410,-0.3704,47.9500,0.0700,-8.4000
240723,1.0199,-0.0386,-0.3226,87.7800,7.7700,-12.1100
240767,0.9804,-0.0532,-0.2445,124.2500,42.0000,-14.6300
240811,0.9789,-0.0166,-0.2596,86.8700,26.6000,-13.8600
240855,0.9555,0.0107,-0.3543,28.1400,-2.1000,-14.0000
240899,0.9789,-0.0659,-0.1405,19.3200,27.7200,-14.1400
240943,0.9877,-0.0376,-0.1513,1.7500,-5.1100,-14.9800
240987,0.9457,0.0098,-0.2313,51.8000,19.6700,-7.5600
241031,1.0253,-0.0122,-0.1196,41.9300,33.4600,-7.5600
241075,1.0185,-0.0771,-0.1469,79.8000,21.4900,-17.2900
241119,1.2000,-0.0322,-0.1737,126.9800,58.3100,-16.2400
241163,1.0516,-0.0771,-0.2318,168.9100,224.7700,-16.6600
241207,0.9379,0.0468,0.2001,69.7200,188.2300,-17.0100
241250,0.9848,0.0044,0.2562,77.3500,105.9100,38.2200
241294,0.9511,0.0122,0.1986,108.5700,127.9600,20.7900
241338,0.6573,0.4031,0.5031,-91.4900,118.5800,13.0900
241382,0.8174,0.0522,0.5388,27.3000,39.6900,-21.7700
241426,0.8189,-0.1659,0.5861,93.7300,54.9500,33.1800
241470,0.8164,0.0454,0.6783,76.1600,81.3400,-6.5100
241514,0.7642,0.1235,0.6759,95.9700,64.9600,-88.7600
241558,0.7496,0.1684,0.6115,64.0500,53.0600,-2.5900
241602,0.6959,0.2211,0.6256,60.4100,94.2200,0.1400
241646,0.6490,0.2674,0.8472,46.1300,67.4800,15.2600
241690,0.6154,0.3523,0.7798,44.1700,63.0700,-7.6300
241734,0.6056,0.3196,0.8457,34.3700,58.1700,-19.1100
241778,0.5539,0.3938,0.7989,45.5700,44.8700,-8.6800
241822,0.5061,0.3523,0.7627,17.0100,23.8000,-5.8800
241866,0.4758,0.3987,0.7540,20.0900,15.4000,-13.1600
241910,0.5002,0.4104,0.7798,-0.1400,18.9700,-15.4700
241954,0.5056,0.3177,0.8316,-18.5500,0.0700,-3.2200
241998,0.4670,0.3748,0.8130,9.7300,12.0400,-7.2100
242041,0.4763,0.3762,0.7788,29.1900,20.7200,-9.0300
242085,0.4592,0.4177,0.8047,10.7100,12.3900,-16.6600
242129,0.4290,0.4060,0.8101,7.4200,8.6800,-12.3200
242173,0.4265,0.4529,0.7749,4.2000,16.1000,-15.1200
242217,0.4050,0.3816,0.8833,7.4900,19.9500,-21.9800
242261,0.3650,0.4670,0.8555,19.8100,28.9100,-20.0200
242305,0.3611,0.4558,0.7871,20.1600,34.3700,-21.5600
242349,0.3231,0.4812,0.8267,6.9300,7.4900,-7.8400
242393,0.3104,0.5173,0.7998,0.7000,6.7200,-12.8100
242437,0.3094,0.4821,0.8159,-5.3900,6.3000,-13.5800
242481,0.3162,0.4729,0.8340,-10.9900,2.3800,-13.3000
242525,0.3026,0.4607,0.8525,-6.5800,1.8200,-8.4700
242569,0.2865,0.5041,0.8447,-8.2600,-3.0800,-8.4700
242613,0.2777,0.4485,0.8843,-3.8500,-0.8400,-14.2100
242656,0.2601,0.4807,0.8296,-8.6800,-2.9400,-4.8300
242700,0.2542,0.4651,0.8955,-5.6700,-2.8700,-9.3100
242744,0.2635,0.4812,0.8164,-5.6700,-5.3900,-8.6100
242788,0.2757,0.4534,0.9165,-14.3500,-11.0600,-14.0000
242832,0.2674,0.4685,0.8530,-37.4500,-21.0700,-36.8900
242875,0.2660,0.4026,0.8974,-38.5700,-25.6200,-35.7000
242919,0.2611,0.4221,0.8760,-34.0200,-24.9200,-23.4500
242963,0.2557,0.3909,0.8833,-46.7600,-41.8600,-32.2700
243007,0.2460,0.3684,0.9960,-46.5500,-78.0500,-26.3200
243051,0.3518,0.3562,0.8194,-60.8300,-106.1900,-34.3000
243095,0.3436,0.3382,0.9130,-16.8000,-76.7900,13.5100
243139,0.4978,0.2547,0.8101,-23.1700,-84.2100,16.5900
243183,0.4904,0.3187,0.9335,-77.7700,-93.7300,1.1900
243227,0.6432,0.2303,0.7335,-51.8000,-106.8900,-3.0800
243271,0.5890,0.2191,0.8042,-84.0000,-96.2500,-4.4800
243314,0.6422,0.1771,0.7388,-136.6400,-162.6100,-38.7100
243358,0.6876,0.1200,0.6202,-157.4300,-140.6300,-10.9900
243402,0.8091,0.0332,0.6490,-158.2700,-164.9200,-16.0300
243446,0.9423,-0.0659,0.4616,-127.4000,-129.2900,-16.7300
243490,0.8808,0.0283,0.3279,-152.3900,-199.7100,23.9400
243534,1.0355,-0.1596,0.1620,-117.9500,-115.2900,0.7700
243578,1.0121,-0.1137,0.1103,-120.1200,-120.1900,-8.4700
243622,1.0302,-0.1649,-0.0239,-133.9100,-81.0600,-11.4100
243666,1.0185,-0.1181,0.0444,-113.2600,-83.0200,-27.3000
243709,1.0033,-0.0669,-0.0483,-141.5400,-85.3300,-1.1200
243753,0.9618,-0.0512,-0.0893,-149.2400,-83.6500,-7.0000
243797,0.9477,-0.0483,-0.1791,-78.1900,-53.7600,-10.5000
243841,1.0102,-0.0732,-0.1967,-45.0800,-75.1800,-20.2300
243885,0.9672,0.0366,-0.2445,-100.4500,-72.3100,-21.2800
243929,0.9931,0.2235,-0.1493,63.6300,-83.3000,-89.7400
243973,0.8984,0.2220,-0.2401,142.1700,-108.0800,-92.7500
244017,0.9379,0.2025,-0.6032,-80.8500,-52.1500,-21.0700
244061,0.8638,0.0439,-0.4699,-34.5100,-44.1000,-10.7100
244105,0.8779,0.1366,-0.5983,-30.1000,-27.2300,-12.3200
244149,0.8608,0.1440,-0.5046,-64.1200,-41.0900,-20.1600
244193,0.8355,0.3265,-0.6500,-51.9400,-31.7800,-14.9800
244237,0.8189,0.1357,-0.4348,-12.5300,-26.9500,-19.2500
244281,0.8257,0.3211,-0.7266,-11.1300,-24.8500,9.8700
244325,0.8062,0.2425,-0.6891,-0.9100,-6.7900,9.8700
244369,0.7813,0.1791,-0.4651,20.4400,-16.5900,-16.2400
244413,0.8540,0.2557,-0.6730,-3.0800,-15.1900,-2.1000
244457,0.7857,0.2923,-0.6373,-4.5500,-9.8000,-1.6800
244500,0.7915,0.3338,-0.6115,-13.6500,-4.6200,2.8700
244543,0.7769,0.3333,-0.6071,-25.9700,-14.7000,10.2200
244587,0.7920,0.2728,-0.5632,-20.1600,-12.7400,16.3800
244631,0.7886,0.2528,-0.5544,-17.2900,-12.3200,13.3000
244675,0.7725,0.2645,-0.5700,-8.3300,-13.8600,11.7600
244719,0.7774,0.3026,-0.5734,8.8900,-11.2700,9.3800
244763,0.7759,0.2777,-0.5807,9.5900,-12.3200,15.7500
244807,0.7754,0.2362,-0.5973,10.2900,-10.9200,11.2000
244851,0.7754,0.3382,-0.5109,-0.0700,-19.9500,6.9300
244895,0.8242,0.1850,-0.6173,13.4400,-0.6300,12.5300
244939,0.7515,0.2172,-0.6505,-20.0200,4.4800,22.2600
244983,0.8194,0.2367,-0.6568,-62.3000,0.7000,40.1800
245027,0.8355,0.2035,-0.6124,-0.0700,2.8000,20.4400
245071,0.8140,0.2323,-0.5524,0.5600,3.0100,21.1400
245115,0.8311,0.1508,-0.5675,-17.0800,-6.1600,17.5700
245159,0.8125,0.1854,-0.5607,-12.1800,-10.2900,13.0900
245203,0.7945,0.2547,-0.6046,-3.0100,-5.9500,20.4400
245247,0.8164,0.1742,-0.5900,15.0500,-13.7200,20.3700
245291,0.8072,0.1635,-0.5592,16.1700,-19.8800,16.1700
245334,0.8242,0.1479,-0.6612,48.7200,-0.8400,24.3600
245378,0.8223,0.0888,-0.5685,80.4300,5.8100,25.5500
245422,0.8125,-0.0102,-0.6159,80.0100,17.5000,10.7800
245466,0.8120,0.1181,-0.5378,2.1000,13.8600,-3.0100
245509,0.8306,0.0185,-0.5568,-6.5800,9.3800,-3.0100
245552,0.8433,-0.0732,-0.5734,25.2700,9.3100,5.6700
245596,0.8638,0.0576,-0.6237,-18.6200,-1.3300,17.0100
245640,0.8613,-0.0366,-0.5275,-50.2600,-16.8000,17.8500
245684,0.8506,-0.0722,-0.5427,-25.7600,-10.2200,19.1100
245728,0.8652,-0.0005,-0.5583,-34.5800,-10.9900,24.4300
245772,0.8330,-0.0327,-0.5802,-42.0000,-1.1200,5.6000
245816,0.8682,-0.0224,-0.6120,-29.3300,-10.2900,6.7200
245860,0.8496,0.0332,-0.6393,-53.5500,-24.2200,7.2100
245904,0.8291,0.1303,-0.6105,-39.4800,-19.6000,10.5000
245948,0.8198,0.0610,-0.6027,-68.7400,-28.9100,6.7900
245992,0.8189,0.0766,-0.5876,-45.4300,-25.2000,5.3200
246036,0.8003,0.1484,-0.5973,-22.8200,-6.7900,9.5900
246080,0.7935,0.0874,-0.6095,-14.7700,-6.7200,11.0600
246124,0.7896,0.1737,-0.6310,-36.1900,1.3300,22.8200
246167,0.7554,0.1635,-0.6281,-84.9100,-14.4900,13.5800
246211,0.8120,0.1542,-0.5641,-39.7600,-13.7900,4.7600
246255,0.8272,0.2860,-0.7681,8.5400,-5.1800,13.9300
246299,0.8433,0.1576,-0.6622,70.2100,6.0900,21.0000
246343,0.8345,0.0688,-0.6695,118.0900,23.3800,3.1500
246387,0.8296,0.1142,-0.4943,80.5700,1.8900,19.1100
246431,0.7998,-0.0625,-0.5758,124.3900,-6.5800,22.6800
246475,0.8228,-0.1279,-0.6364,171.4300,10.9200,-10.8500
246519,0.8189,-0.1152,-0.5588,135.7300,22.8900,-20.5100
246563,0.8721,-0.0620,-0.7120,69.3000,8.0500,-33.3900
246607,0.8877,-0.1527,-0.5988,103.2500,14.9800,-2.8000
246651,0.8428,-0.1674,-0.5378,71.9600,8.4000,-0.4900
246695,0.8569,-0.2411,-0.4914,45.7100,7.4900,-0.1400
246739,0.8672,-0.3645,-0.4246,47.0400,12.1800,8.4000
246783,0.9540,-0.3035,-0.4665,56.4900,28.9100,61.3900
246827,0.7637,-0.3518,-0.4524,59.0100,15.4000,25.6900
246871,0.8145,-0.3509,-0.4314,24.9900,0.7000,20.2300
246915,0.8564,-0.3392,-0.4358,11.0600,0.0000,15.0500
246958,0.8960,-0.4612,-0.3904,-18.9700,3.8500,1.9600
247000,0.8408,-0.2562,-0.4221,-14.7700,-1.1200,-4.3400
247043,0.8745,-0.3123,-0.3924,-15.0500,-5.1100,0.7000
247087,0.8682,-0.3304,-0.3865,-14.2100,-4.9700,-3.1500
247131,0.8545,-0.3177,-0.3894,-69.2300,-14.4200,-11.8300
247175,0.8682,-0.3001,-0.4407,-43.4700,7.0000,-4.9700
247219,0.8599,-0.2552,-0.4372,-55.5100,-1.0500,-6.0200
247263,0.8672,-0.2660,-0.4182,-57.1900,-0.7000,-11.5500
247307,0.8667,-0.2591,-0.4377,-42.2800,-5.8800,-9.4500
247351,0.8847,-0.2347,-0.4563,-53.7600,-12.8800,-8.9600
247395,0.8886,-0.1996,-0.4812,-48.7900,-6.0200,-8.1200
247439,0.8828,-0.1352,-0.5046,-55.3000,-14.7700,-9.5200
247483,0.8828,-0.1459,-0.5007,-38.0800,-11.3400,-9.6600
247527,0.8716,-0.0547,-0.5056,-23.3100,-12.8100,-16.9400
247571,0.8628,-0.1083,-0.5119,-50.1900,-24.9200,-30.9400
247615,0.8545,-0.0688,-0.4948,-35.1400,-13.1600,-6.4400
247659,0.8618,-0.0615,-0.5661,-11.9700,-15.9600,-9.9400
247703,0.8525,-0.0215,-0.5539,-24.9200,-9.6600,-3.4300
247747,0.8477,-0.0673,-0.5641,-8.8900,-23.1000,-3.5000
247791,0.8696,0.0420,-0.5261,5.6000,-22.1900,-9.5900
247834,0.8150,-0.0088,-0.5002,-3.0800,-26.0400,-3.4300
247877,0.8394,-0.0639,-0.6105,-39.2000,-25.5500,4.4800
247921,0.8218,0.0044,-0.6603,-0.9800,-6.7900,3.6400
247965,0.8164,0.0825,-0.6988,-5.3900,-3.8500,13.3000
248009,0.8262,-0.0181,-0.5861,-20.6500,-4.2700,10.0100
248053,0.8233,-0.0625,-0.5983,-13.7200,-1.9600,6.6500
248097,0.8013,0.0322,-0.6261,-11.1300,-0.7000,5.7400
248140,0.8340,-0.0059,-0.5636,-16.9400,-4.6900,7.7000
248184,0.7989,-0.0039,-0.5919,-32.2700,-5.3900,12.6000
248228,0.8272,0.0249,-0.5856,-28.9100,-7.7000,8.0500
248272,0.8706,-0.0049,-0.6290,-43.6800,-3.5000,7.9100
248316,0.8316,0.0961,-0.5675,-59.0100,-4.4800,18.1300
248359,0.8247,0.0508,-0.5929,-22.2600,-4.0600,21.2100
248402,0.8369,0.0073,-0.5885,-23.5900,-3.9900,12.1800
248446,0.8379,0.0181,-0.5788,-27.7900,-4.6200,5.3200
248489,0.8286,0.0805,-0.5807,-13.3000,-4.6200,8.1900
248533,0.8198,0.0869,-0.5988,-9.6600,-5.8100,9.0300
248576,0.8169,0.1000,-0.5705,-44.6600,-14.6300,8.9600
248620,0.8228,0.2391,-0.5524,-85.8900,-14.0700,20.5100
248664,0.7993,0.2123,-0.5495,-140.6300,-31.5700,25.4800
248708,0.8252,0.2089,-0.6178,-131.6700,-39.3400,22.1900
248751,0.8140,0.1103,-0.6588,-99.8900,-42.7000,17.2200
248795,0.8003,0.1962,-0.7662,-78.0500,-30.4500,11.2700
248839,0.7686,0.1410,-0.7096,-67.6900,-25.4800,-6.4400
248883,0.7793,0.4480,-0.7598,-48.0900,13.4400,12.6000
248927,0.7364,0.3001,-0.6115,-148.1200,-24.9200,4.0600
248971,0.7603,0.2352,-0.5861,-53.9700,-36.6800,-27.9300
249015,0.7349,0.2557,-0.5290,3.5000,-0.7000,1.2600
249059,0.7525,0.3577,-0.4826,-1.2600,17.7100,-13.4400
249103,0.7027,0.6368,-0.4782,35.9100,17.8500,-5.3900
249147,0.7740,0.4865,-0.5988,85.3300,32.9000,13.3000
249191,0.7784,0.4660,-0.6856,101.8500,56.0000,17.1500
249235,0.7852,0.5139,-0.5749,128.3100,92.2600,45.7800
249279,0.8477,0.2474,-0.5441,145.3900,92.9600,39.3400
249323,0.8999,0.3035,-0.4329,145.6700,111.4400,65.4500
249367,0.9174,-0.0434,-0.2050,132.7900,83.7900,43.5400
249411,0.9492,-0.0903,-0.2708,105.4900,93.1700,52.0100
249455,0.9170,-0.0849,-0.0908,88.2000,72.1700,21.2800
249499,0.9194,-0.0742,0.1649,48.5100,24.8500,12.0400
249542,0.9248,-0.2040,0.2011,3.5000,-29.2600,-11.7600
249585,0.9043,-0.1586,0.0932,-17.7800,-53.0600,-40.5300
249629,0.9087,-0.1000,0.0571,-22.4700,-83.4400,-47.1100
249673,0.8823,-0.0112,-0.2094,-4.2000,-89.8800,-41.1600
249717,0.8564,0.2567,-0.4485,-16.1000,-87.1500,-27.5100
249761,0.9174,0.0966,-0.5583,15.6100,-83.6500,-1.7500
249805,0.8428,0.0908,-0.4704,54.1100,-76.9300,-6.5100
249849,0.8418,0.0400,-0.6349,32.8300,-61.6000,-12.1800
249893,0.8423,0.0649,-0.5949,21.6300,-31.0100,1.1200
249937,0.8237,-0.0395,-0.6227,22.8200,-53.1300,1.9600
249981,0.8574,-0.0473,-0.7666,42.9100,-44.9400,6.3700
250025,0.8272,-0.0244,-0.7623,67.5500,-41.0900,4.4800
250069,0.7632,-0.1240,-0.6944,39.2700,-30.8700,6.7200
250113,0.7701,-0.0200,-0.7222,53.5500,-20.3000,6.4400
250157,0.7427,-0.0874,-0.7891,32.9700,-17.0800,13.7200
250201,0.7383,-0.1449,-0.7047,11.6900,-37.1000,13.0900
250245,0.7213,-0.1913,-0.7042,26.7400,-20.5800,2.3100
250288,0.7257,-0.1659,-0.7232,7.7700,-16.3800,-1.3300
250332,0.7066,-0.1205,-0.7183,-13.2300,-20.7200,-12.0400
250375,0.7149,-0.1527,-0.7496,-34.2300,-37.5900,-13.3700
250419,0.6988,-0.0947,-0.7510,-53.4800,14.7700,11.9700
250463,0.6822,-0.0815,-0.7169,-42.4900,-7.3500,6.2300
250506,0.7052,-0.0293,-0.8101,-64.3300,-36.5400,-1.1200
250550,0.8477,-0.0874,-0.7852,-74.6200,-29.8900,8.2600
250593,0.6573,-0.0429,-0.7408,-15.4700,-42.5600,1.9600
250637,0.6534,-0.0342,-0.8438,0.0700,-38.5000,28.4900
250681,0.6217,-0.0059,-0.7930,-19.3200,-38.4300,31.5000
250725,0.6095,0.0054,-0.8330,-40.6000,-22.4000,17.7100
250769,0.5993,-0.0327,-0.9301,-49.0000,-12.2500,11.8300
250813,0.5993,-0.0498,-0.9404,-28.4200,7.4900,1.0500
250856,0.6222,0.0220,-0.8764,-30.9400,16.4500,1.3300
250900,0.5758,0.0200,-0.7364,-17.1500,14.9100,5.6700
250944,0.5963,0.0220,-0.6676,3.8500,0.4200,4.0600
250987,0.5768,0.0590,-0.7447,14.0700,-11.0600,8.6800
251030,0.6237,-0.0815,-0.7847,-17.7800,-18.2700,4.7600
251073,0.6198,0.0142,-0.8154,-95.6200,-24.9200,0.6300
251117,0.6120,0.1747,-0.8652,-166.3200,2.6600,4.6200
251161,0.6490,0.2020,-0.8032,-181.0900,12.6700,-7.2800
251205,0.6066,0.4202,-0.7061,-163.1700,32.1300,-16.4500
251248,0.6266,0.5309,-0.5988,-195.2300,23.1700,-0.9800
251291,0.6456,0.6246,-0.5192,-98.0000,17.2200,-1.4700
251335,0.6344,0.5636,-0.4226,-60.4100,16.4500,6.7200
251378,0.6525,0.6051,-0.4021,-65.3100,7.1400,7.8400
251421,0.6827,0.5871,-0.3997,-43.8900,1.0500,8.0500
251464,0.6891,0.6271,-0.4221,-24.8500,-2.6600,4.6900
251507,0.7003,0.6193,-0.4265,-21.9800,0.1400,12.8100
251551,0.6934,0.6090,-0.4607,4.6200,1.7500,12.8100
251594,0.7100,0.6300,-0.4529,32.6900,10.0100,19.6000
251638,0.6969,0.5309,-0.3738,53.3400,7.1400,22.4000
251682,0.7462,0.2967,-0.3235,115.6400,-3.0800,21.8400
251725,0.7252,0.4158,-0.4514,274.6100,-10.9900,4.4800
251769,0.6393,0.3460,-0.6183,212.9400,-8.3300,2.0300
251812,0.7286,0.4187,-0.6647,76.1600,-8.4700,11.8300
251856,0.7359,0.2625,-0.7022,11.1300,-9.0300,11.1300
251900,0.7788,0.2220,-0.6817,17.5700,1.6800,9.8700
251944,0.7408,0.1893,-0.6944,48.4400,7.9800,12.5300
251988,0.7754,0.1669,-0.7208,53.2000,12.1100,11.2000
252032,0.7984,0.1791,-0.7320,58.1700,22.9600,8.1200
252076,0.7696,0.1220,-0.7022,22.8200,33.3200,4.8300
252119,0.7935,0.0420,-0.7320,-7.7000,28.8400,20.5800
252162,0.7676,0.1508,-0.5822,4.2000,40.9500,4.9000
252205,0.8438,0.0986,-0.6129,-41.4400,35.8400,7.2800
252248,0.8379,0.0947,-0.5836,-149.5900,36.6100,4.2000
252291,0.8564,0.0644,-0.4602,-131.1800,15.2600,-7.1400
252335,0.8716,0.0634,-0.4392,33.1100,11.7600,-8.2600
252378,0.8725,0.2528,-0.5895,449.6800,72.8000,19.1800
252422,0.6310,0.2435,-0.4353,188.8600,80.7100,-50.3300
252466,0.9887,0.1674,-0.5802,184.1700,61.6000,18.5500
252510,0.9848,0.1396,-0.5822,36.4700,81.6200,59.8500
252554,0.9301,-0.2923,-0.1747,1.1200,49.9800,46.6900
252598,0.9814,-0.3255,-0.1137,-20.0900,11.4100,9.3800
252641,0.9252,-0.0908,-0.1176,28.4900,-5.8800,36.1900
252685,0.9482,-0.3631,-0.1444,-10.5000,-0.4200,14.0700
252729,0.9443,-0.2440,-0.1176,5.2500,-18.0600,8.3300
252773,0.9438,-0.2372,-0.2176,-49.4900,-27.3700,-12.2500
252817,0.9321,-0.0420,-0.3489,-43.4700,-30.0300,-12.3900
252861,1.0390,-0.1469,-0.4846,-59.9900,-6.5100,7.0700
252905,0.9667,-0.2269,-0.4075,-39.4100,-13.1600,-4.6900
252949,0.9350,-0.1225,-0.3216,-39.3400,-13.6500,-1.8200
252993,0.9453,-0.2338,-0.2230,23.3800,-1.7500,5.9500
253037,0.9492,-0.2045,-0.3382,-2.0300,3.5700,-3.0800
253080,0.9355,-0.1674,-0.3533,-5.0400,-11.9000,-16.7300
253123,1.0072,-0.1869,-0.4504,-19.6700,9.2400,-17.9900
253166,0.9614,-0.1152,-0.4431,-14.2100,7.8400,-21.8400
253209,0.9687,-0.1039,-0.4338,-24.1500,15.9600,-11.4100
253253,0.9726,-0.1435,-0.3538,-6.3000,20.5100,-9.7300
253296,0.9604,0.0337,-0.4402,-14.9800,36.1900,0.9100
253339,0.9555,0.0498,-0.1771,24.1500,34.7900,-6.2300
253382,0.9267,0.0908,-0.1810,-5.3200,38.3600,20.6500
253426,0.9989,-0.1093,-0.1088,-15.3300,11.4100,12.4600
253470,0.9701,-0.1718,-0.0869,-64.0500,-18.4100,10.4300
253514,0.9667,-0.2011,-0.1113,-79.5900,-30.6600,-0.0700
253557,1.0189,-0.3006,-0.0044,-69.4400,-43.7500,-27.5800
253601,0.8896,-0.0864,-0.1962,-141.8900,-73.9200,-45.2200
253645,0.8618,-0.0078,-0.1249,-82.5300,-97.8600,-45.9900
253689,0.9921,0.3162,-0.5895,-49.2800,-20.7900,-9.2400
253732,0.9526,0.4714,-0.8037,-13.1600,-3.5000,-3.4300
253775,0.8872,0.5348,-0.6188,34.7900,32.9700,51.3100
253819,0.8916,0.1586,-0.1669,161.7700,54.8800,65.6600
253863,0.9999,-0.2357,-0.0903,151.2000,105.9100,65.8700
253907,0.9911,-0.3050,-0.0898,78.4000,47.7400,54.0400
253950,0.9633,-0.4421,0.1728,37.0300,-21.8400,6.2300
253994,0.8306,-0.2625,0.1039,72.8700,-34.8600,-17.2900
254037,0.8867,-0.0015,-0.0898,2.0300,-44.5900,-0.6300
254080,1.0014,-0.1981,-0.3421,28.0700,-58.2400,22.8900
254124,0.9633,-0.1059,-0.4128,-23.8000,-63.4900,6.0200
254166,0.9072,-0.1298,-0.5226,-19.7400,-52.1500,-0.2800
254209,0.9677,-0.1913,-0.5251,-23.0300,-38.1500,29.8900
254253,0.8882,-0.1835,-0.4748,26.1800,-23.0300,58.7300
254297,0.9438,-0.3460,-0.4841,56.4200,-1.4700,63.4900
254341,0.9355,-0.4748,-0.4016,72.9400,4.7600,49.2100
254384,0.8847,-0.4412,-0.3636,35.2800,-34.9300,35.5600
254428,0.9150,-0.5280,-0.4119,-26.4600,-11.9000,15.5400
254472,0.8047,-0.4431,-0.3260,40.8100,5.5300,21.1400
254515,0.7457,-0.3065,-0.2865,-28.4200,-23.0300,-16.7300
254559,0.7203,-0.3026,-0.3377,-63.9800,-41.0200,-37.5900
254603,0.8838,-0.2342,-0.4592,17.5700,-27.3700,-31.5700
254647,0.9184,-0.2216,-0.4538,-2.7300,-7.3500,-27.7200
254691,0.8052,-0.3606,-0.4216,7.2800,-23.6600,21.0000
254735,0.7930,-0.1464,-0.4504,-44.8000,-21.0700,25.4800
254779,0.8384,-0.1996,-0.4577,7.1400,-34.1600,32.4800
254823,0.8418,-0.2225,-0.4992,14.8400,-37.1700,39.2700
254867,0.7920,-0.2694,-0.6163,20.2300,-34.5800,52.2900
254910,0.7017,-0.3182,-0.5065,19.5300,-30.8000,72.2400
254954,0.4314,-1.0555,-0.7945,82.0400,-21.6300,-22.4700
254997,0.9594,0.2372,-0.3221,13.2300,40.5300,-36.4000
255040,0.9028,-0.1918,-0.2928,2.8000,7.2800,107.5200
255083,0.8164,-0.5222,-0.4734,-19.7400,-8.3300,39.2000
255125,0.8042,-0.6349,-0.5266,-8.0500,27.6500,19.7400
255168,0.7286,-0.6481,-0.4494,18.3400,11.5500,-5.4600
255211,0.7662,-0.5866,-0.4387,10.7800,10.9900,1.4000
255255,0.7720,-0.5939,-0.3538,22.7500,7.9800,-18.7600
255298,0.7300,-0.5261,-0.3523,5.8100,7.3500,-10.2200
255341,0.8189,-0.5388,-0.3367,-0.3500,-6.8600,-13.5100
255384,0.7979,-0.5163,-0.3645,-2.9400,-11.6900,-20.9300
255427,0.8169,-0.5553,-0.3314,-14.5600,-21.7000,-23.7300
255471,0.7740,-0.5153,-0.3806,-17.8500,-27.1600,-33.6700
255515,0.8072,-0.4319,-0.4265,-31.6400,-16.6600,-31.7100
255559,0.7852,-0.4207,-0.3860,-54.2500,-36.6100,-38.0800
255603,0.7984,-0.3528,-0.4734,-41.4400,-44.1000,-41.1600
255647,0.7584,-0.2962,-0.5100,-59.9900,-50.8200,-48.5800
255691,0.8252,-0.2596,-0.6154,-46.0600,-31.0800,-41.9300
255735,0.7896,-0.1723,-0.5827,-41.4400,-0.6300,-23.5200
255779,0.7530,-0.1669,-0.6227,-29.8200,-2.3100,-14.2800
255822,0.7906,-0.1864,-0.6232,-48.7900,-12.1800,-8.1200
255866,0.6783,-0.2401,-0.6007,-78.4000,-25.7600,-6.1600
255909,0.7388,-0.0678,-0.8223,-65.8700,-3.3600,-14.7700
255953,0.8398,-0.1249,-0.5031,-30.8000,9.1700,-23.9400
255997,0.8350,0.0127,-0.6612,-9.8700,2.8700,-26.3200
256040,0.8813,-0.0088,-0.7232,-1.7500,10.8500,-36.6100
256083,0.8525,-0.1230,-0.6812,8.3300,17.4300,-39.3400
256125,0.8804,0.0630,-0.6842,8.6800,13.9300,-30.8700
256168,0.8169,0.0390,-0.5724,1.1900,9.7300,-22.0500
256211,0.8667,0.0161,-0.5763,-1.0500,2.5900,-26.9500
256254,0.8247,0.0742,-0.5441,9.7300,-0.0700,-23.2400
256298,0.8350,0.0737,-0.5202,16.3800,6.5100,-16.7300
256342,0.8374,0.0805,-0.5295,8.2600,1.6800,-19.8800
256385,0.8247,0.1322,-0.5880,12.5300,3.4300,-19.3200
256429,0.8677,0.1405,-0.6095,11.6900,8.1200,-11.9000
256472,0.8633,0.1362,-0.5827,11.2000,9.6600,-9.3100
256515,0.8560,0.1474,-0.5578,2.2400,4.6900,2.4500
256558,0.8028,0.1171,-0.5592,4.0600,6.0200,8.8200
256602,0.8828,0.0195,-0.4460,14.9800,1.7500,9.1700
256645,0.8335,0.0371,-0.4577,1.4000,0.2800,5.5300
256688,0.8872,0.0200,-0.4441,-3.2900,-6.9300,0.8400
256731,0.8491,0.0503,-0.5632,2.5200,-10.2900,0.3500
256774,0.9135,0.0444,-0.5983,-0.6300,1.0500,0.2100
256817,0.8886,0.0839,-0.6007,2.1000,9.2400,-8.4700
256860,0.8711,0.1049,-0.5558,-0.6300,5.3900,-5.4600
256904,0.8394,0.1074,-0.5358,5.1100,5.8100,4.0600
256947,0.8145,0.0595,-0.4704,7.8400,1.0500,1.8900
256990,0.8545,0.0122,-0.4734,3.5000,-0.2100,3.8500
257034,0.8647,0.0415,-0.4656,0.4200,-3.8500,-0.0700
257077,0.8916,0.0312,-0.4831,2.9400,-4.4800,0.2800
257121,0.8969,0.0337,-0.5309,0.4200,-1.6100,-3.0100
257164,0.9189,0.0366,-0.5036,2.7300,0.2800,-6.7200
257207,0.8935,0.0532,-0.5319,0.3500,2.7300,-8.0500
257250,0.8813,0.0795,-0.4919,3.0100,1.2600,-11.1300
257293,0.8794,0.0893,-0.4963,-3.1500,-1.3300,-13.4400
257336,0.9013,0.0883,-0.4846,-7.9100,-2.3100,-14.2100
257379,0.8999,0.0537,-0.4499,-16.8700,-6.7900,-27.9300
257422,0.9331,0.0615,-0.4231,-23.6600,-16.1700,-44.1700
257466,0.8623,0.1235,-0.4573,-43.8900,-27.8600,-60.3400
257510,0.8496,0.1820,-0.5627,-9.5200,-11.6200,-64.6800
257554,0.8067,0.1889,-0.5690,54.2500,-2.8000,-66.5000
257597,0.8135,0.2489,-0.4870,36.8900,-16.0300,-62.1600
257640,0.7549,0.3148,-0.6422,40.7400,-9.0300,-68.6000
257684,0.6598,0.2552,-0.4753,-22.6100,-9.5900,-67.9700
257728,0.8130,0.3509,-0.5226,34.5800,8.2600,-44.8000
257771,0.7481,0.4490,-0.5836,32.5500,-8.2600,-37.3800
257814,0.7662,0.4036,-0.5373,28.7000,-21.4900,-29.7500
257858,0.7383,0.4216,-0.5944,39.2000,-13.0200,-33.8800
257901,0.6642,0.4124,-0.6930,40.8100,28.0700,-45.3600
257945,0.6783,0.4094,-0.5431,39.4800,10.9200,-54.3900
257989,0.6939,0.4407,-0.6651,8.1200,-1.1200,-38.8500
258033,0.6051,0.3982,-0.7022,80.6400,28.6300,-36.8900
258077,0.6720,0.4055,-0.4499,51.5900,16.6600,-28.6300
258121,0.5851,0.3128,-0.6734,53.7600,4.4100,-31.2200
258164,0.7335,0.4124,-0.6866,69.8600,27.7200,-14.9100
258207,0.7047,0.4050,-0.6310,56.1400,6.0200,-11.5500
258250,0.7022,0.3558,-0.7056,77.7700,12.1800,-8.4000
258294,0.6949,0.3182,-0.6564,74.1300,15.8200,-4.4100
258338,0.6964,0.2733,-0.6266,29.8200,16.6600,10.6400
258382,0.7291,0.2869,-0.6027,56.9100,12.1800,-3.9900
258425,0.7325,0.2201,-0.6647,38.5000,13.3700,-3.3600
258469,0.7305,0.2308,-0.6525,42.6300,9.3800,-5.5300
258513,0.7540,0.2040,-0.7247,64.6100,19.9500,-3.3600
258557,0.7520,0.1840,-0.7227,96.1100,23.3800,-7.0700
258600,0.7925,0.1435,-0.7530,63.7000,57.2600,7.7000
258643,0.6954,0.1693,-0.4377,104.7200,23.7300,3.3600
258687,0.7540,0.1269,-0.4709,48.5100,-10.7800,20.3700
258731,0.7252,0.0473,-0.4514,64.2600,-6.2300,22.6800
258775,0.8184,-0.0630,-0.3982,54.0400,-34.3700,29.6800
258819,0.7725,-0.1039,-0.5407,60.7600,-31.9200,37.1000
258863,0.8233,-0.4441,-0.6612,21.9800,-42.2800,27.4400
258907,0.8189,-0.2830,-1.0048,10.2200,-8.5400,-9.1700
258951,0.8052,-0.2577,-0.8257,-19.8100,18.2700,-13.5800
258995,0.8389,-0.1952,-0.7193,-111.6500,17.1500,-8.4000
259039,0.8111,-0.2216,-0.7842,-109.6900,35.2800,-49.1400
259083,0.7891,-0.1039,-0.7242,-93.8000,65.1700,-98.8400
259126,0.7462,0.0307,-0.7403,-146.5800,41.5100,-95.6900
259170,0.7198,0.2865,-0.4304,-153.4400,41.9300,-72.8700
259214,0.7725,0.4294,-0.0107,-147.2800,-10.2200,1.1200
259258,0.7710,0.3597,-0.1161,-73.2200,-33.7400,-33.4600
259302,0.9238,0.4050,0.1074,-136.4300,-156.1000,-54.3200
259346,0.5383,0.7022,-0.7549,-131.3900,-189.3500,-61.6700
259390,0.4446,0.8081,-0.7657,-50.2600,-77.7700,-24.3600
259434,0.5607,0.7169,-0.4529,-123.4100,-41.0200,-2.5900
259477,0.4992,0.7462,-0.5300,14.0700,25.6200,2.5200
259521,0.6534,0.5695,-0.1532,23.8700,38.7100,9.1700
259565,0.6149,0.6032,-0.3440,14.7700,8.1900,-3.4300
259608,0.5949,0.6329,-0.3865,7.4200,-5.3200,2.1000
259651,0.5919,0.6359,-0.5592,44.8000,-4.0600,-6.4400
259694,0.5812,0.6769,-0.5431,-1.1200,0.0700,4.4800
259737,0.6456,0.5915,-0.4641,13.4400,15.2600,6.3700
259780,0.6593,0.5954,-0.4333,-20.6500,5.9500,7.8400
259823,0.6647,0.5973,-0.4494,-9.1700,9.8700,5.0400
259866,0.6554,0.6105,-0.4602,-1.8900,0.9800,-2.9400
259909,0.6329,0.6407,-0.4470,0.4200,1.6800,-1.7500
259952,0.6388,0.5983,-0.4558,12.1800,2.2400,-1.5400
259995,0.6173,0.6305,-0.5051,-0.7000,0.1400,-1.8900
260039,0.6490,0.6378,-0.4348,-0.9100,2.8700,2.5200
260082,0.6388,0.6232,-0.4260,6.2300,2.1000,2.6600
260125,0.6315,0.6510,-0.4646,1.1200,6.8600,4.4800
260167,0.6412,0.6237,-0.4924,12.9500,10.5700,2.3100
260210,0.6510,0.6368,-0.5207,-7.3500,11.6900,6.7200
260253,0.6705,0.6364,-0.5705,-15.1200,23.0300,10.6400
260297,0.7144,0.6349,-0.6163,-26.8800,57.5400,12.6000
260341,0.7266,0.5729,-0.6998,41.3000,126.7000,-0.4200
260385,0.7213,0.5890,-0.5558,50.1900,186.9700,5.6700
260429,0.7730,0.4504,-0.1996,-3.3600,174.7900,9.7300
260473,0.7774,0.4690,0.1435,-90.6500,115.2200,31.9200
260517,0.7496,0.5134,0.4133,-110.8800,48.0900,22.7500
260561,0.6983,0.5627,0.3865,52.3600,49.0000,-13.3000
260605,0.6573,0.6300,0.3680,20.0900,14.7700,2.1700
260648,0.6764,0.6349,0.3753,-35.7700,-42.5600,28.0000
260692,0.7584,0.5514,0.3992,-40.7400,-84.1400,18.4800
260735,0.8037,0.5578,0.7457,-118.3000,-208.2500,19.3900
260779,0.7398,0.2372,0.2943,35.3500,-283.5700,-49.5600
260823,0.5226,0.3899,-0.5968,36.4700,-261.0300,-79.5900
260867,0.4460,0.5656,-0.6695,90.4400,-203.0700,-84.4200
260911,0.3240,0.5807,-1.0907,162.3300,-155.9600,-56.1400
260955,0.3601,0.5578,-1.1893,77.9800,-77.7000,-37.5900
260999,0.3597,0.5280,-1.0326,62.7200,-33.3200,-22.6800
261042,0.3806,0.4875,-0.9545,42.7700,-10.9200,-11.4800
261086,0.3543,0.4670,-1.0902,54.1100,17.7100,-10.0100
261130,0.2762,0.4494,-1.3083,16.8700,110.4600,-6.5800
261174,0.4099,0.5348,-1.0292,-119.2800,175.2800,31.6400
261218,0.4241,0.4992,-0.7071,-87.7800,207.3400,52.9900
261261,0.5539,0.4714,-0.0952,-98.5600,204.3300,71.3300
261305,0.6856,0.4695,0.1283,-140.9800,81.3400,110.1800
261349,0.7832,0.3914,0.1645,-44.1700,27.2300,141.8900
261393,0.9350,0.3152,0.1923,-1.1200,7.5600,88.7600
261436,0.9799,0.1986,-0.0996,79.5200,-13.5100,38.2200
261480,0.9189,0.2411,-0.1732,24.4300,-26.5300,30.5200
261523,0.9662,0.2147,-0.2938,16.2400,-25.0600,29.7500
261567,0.9984,0.1527,-0.3548,17.0100,-21.4900,18.6200
261611,1.0160,0.1523,-0.3777,16.9400,-14.3500,15.0500
261655,0.9994,0.1401,-0.3226,-4.0600,-14.2100,10.0800
261698,0.9867,0.1708,-0.3235,5.9500,-5.5300,10.3600
261741,1.0024,0.1254,-0.2996,15.5400,-2.9400,3.8500
261784,0.9721,0.1586,-0.3079,-2.1000,-9.6600,-2.0300
261827,0.9560,0.1742,-0.2977,-0.3500,-12.3900,-5.6700
261871,0.9404,0.2069,-0.2908,1.8200,-19.8100,-7.7000
261914,0.9218,0.2142,-0.3001,-21.9100,-34.7900,-9.9400
261957,0.9189,0.2162,-0.3733,-3.2900,-31.4300,-11.9000
262000,0.9145,0.2303,-0.3660,-1.9600,-31.9900,-10.9900
262043,0.9243,0.2323,-0.3494,-7.0000,-33.4600,-13.5100
262087,0.9301,0.2308,-0.3816,19.9500,-46.1300,-25.6200
262131,0.8940,0.2596,-0.3728,19.9500,-53.2700,-36.8900
262175,0.9282,0.2416,-0.3870,31.3600,-65.1000,-45.4300
262219,0.8520,0.3065,-0.5588,58.6600,-62.1600,-50.7500
262263,0.7662,0.2772,-0.6554,63.0700,-61.7400,-34.5100
262307,0.7364,0.2484,-0.7252,125.2300,-15.7500,-61.6000
262351,0.6651,0.3167,-0.5763,75.2500,-3.1500,-17.2200
262395,0.6944,0.1488,-0.7803,92.7500,-2.0300,-11.4800
262439,0.8154,0.1166,-0.7754,148.9600,31.3600,-24.0800
262483,0.7959,0.0185,-0.8808,145.9500,38.3600,-23.0300
262527,0.9360,0.0054,-0.8457,233.5900,127.1200,-71.8200
262571,0.7349,0.0615,-0.6915,456.8200,209.2300,-214.8300
262615,0.8594,-0.0683,-0.4709,322.9100,151.5500,-156.5200
262659,1.0116,0.0722,-0.1488,329.7700,73.5000,-184.6600
262703,0.9282,0.0839,-0.3616,206.2900,2.8000,-200.7600
262747,0.9545,0.0205,-0.3338,200.4100,-23.7300,-192.0100
262791,0.8023,0.2406,-0.4358,112.5600,-38.7100,-156.3100
262834,0.7383,0.4338,-0.4597,41.1600,-35.8400,-121.3100
262878,0.7452,0.4197,-0.4436,31.4300,-24.3600,-64.1200
262922,0.7056,0.3728,-0.5144,-19.8100,-17.6400,-17.9900
262966,0.6139,0.4055,-0.5500,-7.1400,2.4500,-17.7800
263009,0.7857,0.3924,-0.4704,-23.2400,5.3200,-15.8200
263053,0.7530,0.3714,-0.5217,-34.4400,4.9700,-14.6300
263097,0.9331,0.1586,-0.4148,-20.9300,14.3500,-67.1300
263141,0.7310,0.4934,-0.4631,-172.0600,-18.2700,-11.2000
263185,0.7476,0.3777,-0.2245,-141.4700,-22.1200,-24.8500
263229,1.0570,0.8955,0.1435,-73.7800,-27.6500,20.3700
263273,0.7281,1.0697,-0.0381,-143.2900,-133.4200,102.0600
263317,0.7798,0.5553,-0.1615,-75.1100,-147.7000,125.0200
263361,0.6403,0.8281,-0.1640,-43.4700,-141.1200,162.0500
263405,0.6852,0.1898,-0.5417,-82.3200,-132.7200,176.6100
263449,0.6783,0.3123,-0.5578,-174.5800,-146.2300,175.1400
263493,0.7125,0.2298,-0.6549,-137.8300,-101.5000,114.0300
263537,0.6891,0.3348,-0.5958,-161.3500,-96.2500,118.0900
263581,0.7720,0.3919,-0.4763,-141.6800,-77.7000,89.1100
263625,0.7193,0.2508,-0.7471,18.9700,-30.7300,-18.7600
263668,0.7149,0.2484,-0.8725,320.4600,87.2200,-207.4100
263712,0.4782,0.3357,-0.9409,318.3600,155.8200,-289.7300
263756,1.0014,0.4909,0.1713,184.9400,45.1500,-172.2700
263800,0.8745,0.0254,-0.8223,153.4400,134.8900,-294.3500
263844,0.8340,0.5466,-0.4265,1.3300,108.1500,-46.9700
263888,0.7354,0.3958,-0.5178,-165.2700,-87.5700,125.0200
263932,0.8545,0.6242,-0.3723,-160.5800,-73.5700,153.0900
263976,0.6666,0.6583,-0.3104,-155.8200,-153.0200,202.8600
264020,0.5270,0.3850,-0.7139,-278.3200,-113.9600,258.6500
264064,0.8008,0.2006,-0.8584,-277.9700,-79.1700,232.4000
264108,0.9209,0.2572,-0.3411,4.4100,-3.6400,5.5300
264151,0.9292,0.2865,-0.3684,5.1100,25.2000,12.7400
264195,0.7876,0.1620,-0.8540,170.5200,83.0200,-76.9300
264239,0.5856,0.3357,-0.6910,222.8100,178.7100,-183.1900
264283,1.0848,0.4982,0.3372,197.6100,106.1900,-150.3600
264327,1.0970,0.2274,-0.2103,219.5900,133.4200,-256.8300
264371,0.7510,0.6900,-0.2738,-23.1000,28.4200,-77.6300
264415,0.7930,0.5646,-0.1440,-3.0100,-16.9400,-40.7400
264458,0.6529,0.6603,-0.3196,-19.3200,6.0200,-0.2100
264502,0.7139,0.6451,-0.2225,23.3800,9.7300,4.2000
264545,0.7540,0.6144,-0.2499,5.9500,3.9900,9.0300
264588,0.7549,0.6207,-0.2728,5.5300,-3.7800,25.3400
264632,0.7091,0.6159,-0.2747,-8.5400,7.2800,46.7600
264675,0.8955,0.5592,-0.0786,-2.1700,-13.4400,36.4000
264719,0.8452,0.5119,-0.2357,7.9800,-11.6200,32.9700
264763,0.7891,0.3279,-0.4153,-14.7700,-21.0000,36.0500
264807,0.9223,0.4055,-0.2503,-26.6000,-21.0000,49.9800
264851,0.9350,0.2972,-0.3611,-6.6500,18.0600,70.1400
264895,0.9418,0.2045,-0.4133,-44.8000,40.3200,60.6900
264939,0.9121,0.1113,-0.3597,-110.7400,47.9500,63.2800
264983,0.7657,0.2123,0.0947,-239.4700,0.8400,146.7200
265027,1.0878,0.2220,0.0273,-365.1200,-0.0700,134.6100
265071,1.0926,0.2216,0.1586,-348.3200,-2.0300,73.9200
265115,1.0170,0.1005,0.1371,-349.5800,-38.2900,35.0000
265159,1.1024,-0.0996,0.1249,-284.2700,-37.5200,44.8000
265203,1.0980,-0.0708,0.2645,-216.2300,-80.2200,16.7300
265247,1.0741,-0.1132,0.2074,-138.6700,-112.3500,-22.9600
265291,0.9545,-0.0547,0.0981,-91.7700,-115.2200,-24.2900
265334,0.8125,0.1132,-0.0283,-98.3500,-151.6900,3.6400
265378,0.8623,0.0947,-0.2767,-70.1400,-154.0700,-54.6000
265422,0.7549,0.1874,-0.5495,-57.4000,-151.9000,-87.7800
265466,0.6529,0.3572,-0.6037,18.0600,-136.0100,-78.2600
265510,0.6871,0.3719,-0.8857,7.7700,-90.5800,-65.9400
265554,0.6852,0.4231,-0.8276,8.4700,-46.6200,-43.5400
265597,0.6769,0.3684,-0.7759,33.8800,-18.7600,-41.0900
265641,0.6310,0.4075,-0.7144,-3.4300,-14.2800,-34.6500
265684,0.6290,0.3938,-0.7666,-14.0000,4.3400,-20.0900
265728,0.6671,0.3972,-0.6715,15.4000,5.2500,-14.8400
265772,0.6324,0.4104,-0.6656,21.7700,-1.3300,-7.0000
265815,0.6764,0.3406,-0.7501,32.2700,14.9800,-10.1500
265859,0.6315,0.3748,-0.7130,78.1900,13.3700,-37.4500
265903,0.6847,0.4426,-0.6778,22.7500,12.8800,-12.5300
265947,0.6539,0.3070,-0.6827,6.6500,-2.3800,-3.3600
265991,0.6676,0.3162,-0.6622,36.6100,3.6400,-9.2400
266035,0.6749,0.2835,-0.7115,29.8900,7.7700,-10.6400
266078,0.6647,0.2850,-0.6739,19.7400,-1.8900,-8.8900
266122,0.6817,0.3040,-0.7359,30.9400,6.5100,-8.0500
266165,0.6769,0.2713,-0.6949,13.1600,4.6200,-10.6400
266208,0.6803,0.2816,-0.7286,12.6000,4.2000,-0.8400
266251,0.6852,0.2313,-0.7056,12.6700,6.2300,-1.1900
266294,0.6964,0.2391,-0.7076,14.4200,7.4900,-5.8800
266337,0.6759,0.2416,-0.6539,12.6700,6.7900,0.1400
266380,0.7252,0.2186,-0.6978,13.5100,4.0600,-2.6600
266423,0.6983,0.2357,-0.6671,11.4100,0.7000,-1.3300
266467,0.7008,0.2357,-0.7154,8.4000,0.9800,4.1300
266510,0.7047,0.2191,-0.7003,8.4000,1.4000,0.9800
266553,0.7115,0.2240,-0.6642,40.2500,6.7200,-7.0000
266596,0.6749,0.1810,-0.7208,41.6500,0.0000,-0.2800
266640,0.7252,0.1757,-0.7164,41.4400,2.3800,5.5300
266683,0.7320,0.1049,-0.6734,27.7900,0.5600,2.1700
266726,0.7232,0.1371,-0.7174,-1.8200,0.5600,5.3200
266769,0.7330,0.1161,-0.7061,-9.6600,-1.5400,5.9500
266812,0.7383,0.1074,-0.6871,-6.3000,-0.4900,3.7800
266855,0.7271,0.1357,-0.6822,-4.4100,0.7000,3.0800
266898,0.7291,0.1347,-0.6983,-22.0500,-0.5600,7.0000
266941,0.7388,0.1127,-0.6515,-0.7000,-4.4800,1.2600
266984,0.7300,0.1518,-0.6978,-4.1300,-1.5400,1.6800
267027,0.7388,0.1332,-0.6754,-1.7500,-3.2200,3.6400
267070,0.7471,0.1274,-0.6910,-3.1500,-2.9400,2.3100
267113,0.7349,0.1493,-0.6861,-7.7700,-1.8900,3.5700
267156,0.7403,0.1318,-0.6695,-6.8600,-2.5900,2.8700
267199,0.7466,0.1503,-0.7003,-6.0900,-1.9600,2.6600
267242,0.7457,0.1327,-0.6734,-2.8000,-2.8700,2.8000
267285,0.7486,0.1405,-0.6954,-5.3200,-0.8400,2.5200
267328,0.7481,0.1459,-0.6852,0.2100,1.1900,3.2900
267371,0.7535,0.1371,-0.6622,5.1100,3.7800,4.2700
267414,0.7501,0.1425,-0.6764,8.6100,2.8700,5.6700
267457,0.7574,0.1332,-0.6832,11.2700,11.9700,6.5800
267500,0.7613,0.1215,-0.6886,19.4600,15.1900,8.4000
267543,0.7749,0.1152,-0.6910,26.1100,24.2200,12.6000
267587,0.7828,0.0771,-0.6349,49.9800,33.0400,9.6600
267631,0.8062,0.0590,-0.6242,44.7300,36.4700,11.9700
267675,0.8252,0.0190,-0.5588,42.9800,42.4900,13.3000
267719,0.8467,0.0102,-0.5407,41.7200,41.0200,13.7900
267763,0.8574,-0.0268,-0.5534,43.7500,51.3100,12.5300
267807,0.8789,-0.0478,-0.5353,15.2600,57.4000,17.7800
267851,0.8838,-0.0742,-0.5187,35.6300,65.3800,21.2100
267895,0.9296,-0.0781,-0.4358,87.0800,80.9900,4.5500
267939,0.9072,-0.0981,-0.3465,133.8400,93.8000,0.2800
267983,0.9106,-0.1381,-0.2523,98.0000,81.6900,-19.4600
268027,0.9340,-0.1181,-0.1679,67.9000,89.3900,-16.3100
268071,0.9335,-0.1274,-0.1186,104.5800,124.8100,7.3500
268115,0.8618,-0.1440,0.0761,63.8400,164.9200,-4.9700
268159,0.8657,-0.0649,0.2181,-14.4200,176.3300,4.4800
268203,0.8813,-0.1972,0.2464,-38.9900,171.0100,1.7500
268246,0.7823,-0.2245,0.4904,-67.3400,184.5200,-6.9300
268290,0.7481,-0.2508,0.6085,-59.9200,115.9900,-7.7700
268333,0.7052,-0.2879,0.7471,-35.2100,119.9800,-13.3000
268376,0.7218,-0.2899,0.8872,-23.8000,117.8100,-7.5600
268420,0.6856,-0.2181,1.0014,4.4800,82.4600,-17.0800
268464,0.6554,-0.3089,0.9531,-5.3900,77.2800,-39.1300
268507,0.6046,-0.2455,0.9492,-44.4500,33.7400,-48.5800
268551,0.4738,-0.2518,0.9501,-66.5000,8.7500,-61.8100
268595,0.6578,-0.2747,1.2488,-212.4500,-70.7700,-71.8200
268639,0.6520,-0.3616,0.3426,-230.0900,-99.7500,-96.5300
268683,0.7071,-0.3045,0.5348,-64.3300,3.0800,-67.9000
268727,0.7725,-0.3065,0.6242,-42.8400,-11.9000,-41.7200
268771,0.7261,-0.3504,0.6446,-76.9300,-8.2600,-36.4000
268815,0.8237,-0.3748,0.5256,-31.2900,-15.4000,-28.2100
268859,0.7769,-0.3401,0.4177,-48.6500,-12.6700,-24.5700
268903,0.8535,-0.3684,0.5993,36.8200,9.3100,-34.3700
268947,0.7759,-0.4255,0.5246,11.9700,-5.1800,-27.7200
268990,0.7437,-0.2464,0.6002,6.9300,-1.6800,-23.5200
269033,0.7525,-0.2577,0.6544,-13.4400,9.3100,-24.4300
269077,0.7266,-0.2972,0.7135,-21.1400,-21.9800,-19.8800
269121,0.7462,-0.2952,0.5041,-66.0100,-31.5700,-25.5500
269165,0.7476,-0.3089,0.3967,-43.1200,-10.9200,-19.8100
269208,0.7964,-0.2743,0.6612,33.7400,0.7700,-3.2200
269251,0.7764,-0.2728,0.4943,-23.0300,-45.3600,-18.3400
269295,0.8901,-0.3074,0.4529,-60.8300,-33.5300,-0.7700
269338,0.7964,-0.4133,0.3162,-7.7700,-40.9500,-14.2100
269382,0.9921,-0.3187,0.4412,26.8800,-12.5300,-18.2700
269426,0.7686,-0.3684,0.3206,18.2700,10.7800,-17.0100
269470,0.8198,-0.1405,0.6124,125.5100,1.9600,-59.5000
269514,0.8984,-0.2220,0.3699,14.4200,-20.5800,-22.8200
269557,0.8628,-0.1342,0.4353,5.1800,-9.6600,1.8200
269600,0.9331,-0.2176,0.3606,-11.2700,-20.4400,-6.1600
269643,0.9467,-0.1928,0.4187,16.9400,-0.2800,-9.8000
269686,0.9287,-0.2401,0.3416,-3.4300,3.3600,-16.8000
269729,0.9096,-0.1288,0.4265,-1.0500,-9.8000,-12.1100
269772,0.9052,-0.1225,0.3865,-9.6600,-8.5400,-6.9300
269815,0.9360,-0.1854,0.3553,-47.0400,-16.8700,-19.3200
269859,0.9301,-0.0815,0.4006,-69.7200,-38.5700,-34.4400
269903,0.9267,-0.1283,0.4016,-50.9600,-24.4300,-34.0200
269947,0.9379,-0.1332,0.3484,-30.8700,-18.6200,-23.1000
269991,0.9760,-0.1435,0.3558,-17.3600,-15.0500,-19.8100
270035,0.9682,-0.1357,0.3314,-26.1800,-17.5000,-24.5000
270079,0.9360,-0.1083,0.3187,-22.4700,-21.0700,-29.6100
270123,0.9321,-0.0678,0.3109,-4.6200,-14.5600,-12.8100
270166,0.9570,-0.0932,0.3055,-5.6000,-26.2500,-4.6900
270209,0.9906,-0.1484,0.3079,13.3000,-21.7700,5.5300
270252,1.0009,-0.1869,0.2704,20.9300,-33.5300,-2.8000
270296,0.9819,-0.1240,0.2816,30.9400,-14.4900,-5.8100
270340,0.9784,0.0224,0.2069,41.7900,-5.6700,7.7700
270383,0.9941,-0.0322,0.1659,38.9200,10.0100,15.4000
270427,0.9536,-0.0566,0.2582,1.6100,-4.6200,5.4600
270470,0.9184,-0.0498,0.3299,0.1400,-5.3900,10.0800
270513,0.9448,-0.0737,0.3060,12.5300,-17.4300,10.2200
270557,1.0077,-0.0937,0.2181,0.5600,-15.6100,7.7000
270600,1.0390,-0.1035,0.1532,-0.5600,-9.9400,6.3000
270643,1.0307,-0.1288,0.1810,8.5400,-3.1500,0.8400
270686,0.9902,-0.0981,0.2235,10.7100,-0.9800,-2.1000
270729,0.9443,-0.0644,0.2542,20.2300,-11.3400,-5.3200
270773,0.9789,-0.0605,0.2167,13.7200,-8.1200,-4.2000
270817,0.9482,-0.0283,0.2216,10.9900,-1.4700,-7.7000
270860,0.9335,-0.0322,0.3387,15.5400,5.7400,0.5600
270903,0.9433,-0.0625,0.2386,15.8900,5.9500,4.8300
270947,1.0004,-0.0991,0.2791,22.2600,-17.0800,1.1900
270990,1.0258,-0.0952,0.2352,3.5700,-7.7000,-14.1400
271034,0.8242,-0.0693,0.2908,4.6200,-2.7300,-19.9500
271077,1.1317,0.0288,0.1645,0.7000,-0.9800,-19.1100
271120,0.9511,0.0298,0.2113,1.4700,-10.2200,-16.4500
271164,0.9477,0.0605,0.1737,-2.4500,-7.4200,16.8700
271208,0.9692,0.0220,0.2196,-11.2000,-14.1400,7.1400
271251,0.9521,-0.0010,0.2172,1.1200,2.5900,23.1000
271294,0.9794,-0.0776,0.2596,-17.1500,6.8600,12.7400
271338,0.9589,-0.0634,0.3143,-20.6500,-8.4000,7.4900
271382,0.9604,-0.0493,0.2962,-13.1600,-19.0400,5.8100
271426,1.0575,-0.0649,0.2640,-12.8800,-23.7300,18.6900
271470,1.1009,-0.1449,0.1723,-3.4300,-30.0300,7.9800
271513,1.0960,-0.1405,0.1464,-17.2200,-29.3300,-2.4500
271557,1.0136,-0.1030,0.1113,-35.6300,-58.1700,-15.8900
271601,0.8208,-0.0371,0.1205,-44.7300,-98.8400,20.1600
271645,1.0360,-0.0093,0.0381,-69.0900,-160.7200,49.2800
271689,1.0736,-0.1713,-0.0264,-15.4000,-52.4300,8.5400
271732,0.9980,-0.1103,-0.0439,-17.9900,-24.1500,4.0600
271775,1.0082,-0.1142,-0.1654,-19.4600,-28.9100,0.0700
271818,1.0375,-0.1342,-0.2015,-30.2400,-34.2300,-2.0300
271862,1.0433,-0.1362,-0.2674,-27.6500,-24.5000,1.2600
271906,1.0111,-0.1244,-0.1996,-13.0900,-10.2200,-0.0700
271949,0.9457,-0.0952,-0.1859,-16.1700,-24.2900,-0.9100
271993,0.9672,-0.0913,-0.2240,-12.3900,-20.7900,1.6100
272037,0.9653,-0.0761,-0.1557,-17.8500,-27.1600,2.5200
272080,0.9643,-0.0786,-0.2020,-16.6600,-39.2700,-1.1900
272124,0.9653,-0.0927,-0.2991,-9.9400,-28.8400,1.1900
272167,1.0004,-0.1161,-0.3333,-12.1800,-25.4800,6.5800
272211,0.9775,-0.0878,-0.3675,-17.0800,-38.1500,-1.4700
272255,0.9545,-0.0454,-0.4168,-10.5700,-19.6700,4.8300
272299,0.9775,-0.0795,-0.4226,-14.8400,-10.4300,6.3700
272343,0.9560,-0.0747,-0.3733,-24.0100,-9.1700,7.0700
272387,0.9531,-0.0913,-0.3362,-23.3100,-7.2100,5.5300
272431,0.9360,-0.0956,-0.2884,-19.3900,-14.0700,1.8900
272475,0.9155,-0.0839,-0.3109,-7.9100,-17.7800,-4.5500
272519,0.9399,-0.1044,-0.3616,-5.6700,-19.6700,-9.7300
272563,0.9433,-0.0605,-0.3684,-2.3100,-16.6600,-18.2000
272607,1.0307,-0.1566,-0.3611,32.7600,-22.1200,-39.9000
272651,0.9418,-0.1659,-0.4782,69.5800,0.7000,-107.3800
272695,0.9052,0.1893,-0.4831,85.1200,25.2700,-157.1500
272739,0.8228,0.4065,-0.4636,24.4300,38.7800,-51.3800
272783,0.9575,0.1767,-0.3914,-25.7600,37.1000,-33.1800
272827,0.8686,0.2791,-0.2298,0.9800,23.5900,-19.8800
272871,0.9135,0.3548,-0.3026,-18.1300,-12.0400,15.5400
272915,1.1492,-0.0561,-0.5519,-137.2700,-51.4500,21.5600
272958,0.8262,0.3816,-0.5919,-336.2100,-135.3100,51.8000
273002,0.7286,0.5519,-0.3387,-315.7700,-145.2500,162.3300
273046,0.7510,0.3767,-0.4104,-222.5300,-93.8000,172.9700
273090,0.8672,0.0337,-0.3967,-154.2800,-24.3600,112.0000
273134,1.0956,-0.3182,-0.3943,-77.7700,-13.0900,29.6100
273178,1.0307,-0.1703,-0.3240,98.1400,-0.6300,-28.6300
273221,0.9780,-0.1698,-0.4153,277.4800,30.7300,-35.6300
273264,0.9721,-0.3323,-0.6510,202.3000,51.7300,-118.2300
273308,1.0419,-0.3270,-0.7720,60.3400,27.7900,-158.0600
273352,0.7935,-0.0088,-0.3982,-232.8900,-46.6200,-237.8600
273396,0.6364,0.5983,-0.0249,-326.3400,-110.0400,-203.7700
273440,0.4504,1.0497,-0.0800,-210.1400,-49.4900,-89.7400
273484,0.5749,0.9184,-0.0156,-46.5500,2.1700,-9.5900
273527,0.5348,1.0594,-0.1820,92.1200,51.3100,13.2300
273571,0.3928,1.1058,-0.0703,317.1000,190.8200,103.0400
273615,0.8345,0.1923,-0.1362,383.0400,277.9000,129.3600
273659,1.0531,0.0859,-0.1357,-18.6900,42.2800,11.6900
273703,0.8584,0.3933,0.0747,-91.9800,-40.1800,24.0800
273747,0.8218,0.3792,-0.0922,-11.6200,-10.7100,49.7000
273791,0.9643,0.2679,-0.1274,-134.0500,-149.3800,58.3800
273834,1.0004,0.1625,-0.3753,-251.6500,-151.6900,-59.5700
273878,0.8569,0.2899,-0.2982,-314.6500,-54.3900,-170.9400
273922,0.7296,0.7349,0.0185,-224.7000,-25.8300,-170.8000
273966,0.5636,1.1297,0.1020,57.9600,31.1500,6.3000
274010,0.6529,0.8818,0.0434,331.6600,109.6900,94.6400
274054,0.7110,0.4006,-0.3074,416.3600,171.2200,143.1500
274098,1.0126,0.0527,-0.1503,-53.4100,-35.0000,16.6600
274142,0.7052,0.7208,-0.1806,-239.8900,-150.8500,18.4800
274186,0.6222,0.7993,-0.2074,-195.9300,-144.4800,83.5100
274230,0.8369,0.5671,-0.3226,-21.4900,-39.2700,104.5100
274274,0.8594,0.3977,-0.5641,-101.9900,-56.9800,80.1500
274318,1.0585,0.1288,-0.4333,-27.2300,17.6400,22.3300
274362,0.9867,0.1513,-0.2635,85.1200,46.2700,-37.0300
274406,1.0307,0.0151,-0.3577,54.6700,80.1500,-131.1800
274450,0.8340,0.2777,-0.2381,51.5900,106.4700,-183.4000
274494,0.6168,0.5353,-0.1069,25.7600,77.2800,-210.3500
274538,0.4529,1.0521,0.0010,23.5900,35.5600,-173.8100
274582,0.2977,1.2727,-0.1113,103.3900,53.6200,-39.8300
274625,0.5002,1.0634,-0.2396,288.1900,93.3800,69.9300
274668,0.5153,0.7691,-0.4138,280.8400,188.0900,101.0800
274712,0.6686,0.7369,-0.2699,231.2800,182.3500,119.0000
274756,0.7788,0.4026,-0.2152,68.6700,70.2100,135.6600
274800,0.7891,0.3841,-0.1928,0.8400,0.4200,143.9900
274843,0.5744,0.3372,-0.2991,38.6400,28.1400,155.4700
274887,0.8408,0.1244,-0.2674,-12.9500,19.1800,160.6500
274931,0.8691,-0.0268,-0.1810,-39.8300,-3.0100,144.0600
274974,1.0014,-0.2777,-0.2547,-18.1300,17.2200,94.2200
275017,0.9926,-0.2640,-0.2728,-13.6500,23.3100,64.7500
275061,0.9457,-0.3445,-0.2908,-24.2200,19.8800,57.6100
275105,1.0087,-0.4763,-0.2289,-23.0300,35.6300,30.1700
275149,1.1702,-0.5700,-0.1781,-9.8700,49.9800,-3.9200
275192,1.2039,-0.5427,-0.0854,4.6900,42.9800,-33.0400
275235,1.1029,-0.3987,-0.0429,14.0700,-9.9400,-26.4600
275278,1.0219,-0.1288,-0.0815,40.3200,1.7500,-44.9400
275321,0.9916,-0.1625,-0.1088,41.1600,14.4200,-55.2300
275365,0.9838,-0.1054,-0.0996,29.0500,3.7800,-46.9000
275408,0.9892,-0.0512,-0.0732,22.1200,-14.5600,-38.9200
275452,0.9536,0.0181,-0.0898,26.7400,-4.2700,-37.8700
275495,0.9536,0.0551,-0.1059,20.4400,-2.3800,-28.4900
275538,0.9579,0.0732,-0.0971,13.1600,-8.6100,-11.2000
275581,0.9355,0.1054,-0.0771,12.9500,-9.2400,-1.8900
275624,0.9770,0.0571,-0.0859,13.3000,-16.3800,-6.3700
275667,0.9897,0.0156,-0.1308,7.0700,-6.9300,10.0100
275710,1.1253,-0.0342,-0.1215,-2.9400,-1.9600,5.5300
275754,1.0141,0.0034,-0.1210,7.1400,-5.3900,3.9200
275798,1.0253,-0.0200,-0.0878,5.9500,-8.1200,1.6800
275841,1.0121,-0.0254,-0.0708,-1.8200,-17.3600,-7.4200
275884,1.0028,-0.0234,-0.0722,2.8000,-16.3800,-13.0900
275927,1.0146,-0.0137,-0.0961,9.5200,-13.0900,-15.7500
275970,1.0507,-0.0224,-0.1210,23.5200,-3.5700,-22.6800
276014,1.1068,-0.0483,-0.1039,45.5000,2.9400,-51.4500
276058,1.0965,-0.0054,-0.0429,75.3900,30.3800,-107.1700
276102,1.0033,0.0454,-0.0278,87.1500,25.7600,-163.8000
276146,1.0146,0.0288,-0.0508,7.2100,-106.2600,-132.1600
276189,0.9921,0.1898,0.0361,47.6000,-57.4000,-151.6200
276233,0.7769,0.3367,-0.1259,119.2800,-59.8500,-193.1300
276277,0.5627,0.4948,-0.2699,142.5900,-69.0900,-180.5300
276321,0.1986,0.8159,-0.6324,123.8300,-99.0500,-150.5000
276365,0.0688,1.1151,-0.9867,-5.4600,-80.3600,-30.4500
276409,0.0551,1.0297,-0.8901,-146.7200,-164.1500,49.8400
276453,0.2752,0.7774,-0.6188,-91.4900,-87.0800,56.0700
276497,0.4304,0.7422,-0.3836,-65.0300,-41.5800,25.5500
276541,0.4255,0.7593,-0.6037,-4.7600,-45.5000,-44.7300
276584,0.4075,0.6895,-0.4665,-91.6300,-161.8400,11.5500
276628,0.5451,0.7008,-0.6246,-81.1300,-105.8400,36.2600
276672,0.4529,0.7330,-0.5729,-76.3700,-91.0000,14.6300
276716,0.3626,0.7876,-0.4778,-43.4700,-80.2200,12.4600
276760,0.3997,0.7642,-0.4221,-30.3100,-27.3700,43.5400
276804,0.4202,0.7559,-0.3577,-19.1100,-6.1600,48.0900
276847,0.3514,0.8320,-0.4900,25.8300,57.4000,93.8700
276891,0.4582,0.7564,-0.3514,89.3200,106.0500,124.5300
276935,0.5329,0.7017,-0.5129,147.7000,149.5200,138.1800
276979,0.6578,0.5388,-0.5231,163.5200,206.3600,142.8700
277023,0.6534,0.4602,-0.3489,127.6100,234.5000,148.3300
277067,0.7110,0.3372,-0.1327,62.9300,175.2100,132.3700
277111,0.9150,0.1010,-0.0844,-49.8400,51.8700,88.9700
277155,1.0141,0.0264,-0.0420,-43.0500,64.0500,146.7200
277198,0.9604,-0.0956,-0.0371,-40.7400,68.3200,169.3300
277242,0.9658,-0.1659,0.0151,-48.9300,49.8400,125.4400
277286,0.9501,-0.3314,0.1249,-57.4700,59.4300,126.2100
277330,0.9116,-0.4270,0.1596,-56.4200,36.6800,120.4000
277374,0.8984,-0.5402,0.1391,-40.0400,15.3300,121.3100
277417,0.9570,-0.6900,0.0927,-5.4600,30.2400,113.2600
277461,0.9389,-0.6988,0.1723,79.3100,47.4600,68.0400
277505,0.9140,-0.7027,0.3216,75.3900,52.8500,35.9800
277549,0.7969,-0.6568,0.3348,48.0200,27.4400,12.6000
277593,0.7393,-0.7218,0.2894,81.1300,5.6000,-4.7600
277637,0.7671,-0.5905,0.3894,87.5000,23.9400,-7.9100
277680,0.7915,-0.4963,0.4377,6.5800,-9.1700,-4.9700
277723,0.8091,-0.5031,0.4543,27.0900,-27.7200,8.4700
277767,0.7774,-0.5275,0.3592,-4.6900,-25.6900,4.7600
277811,0.8164,-0.5998,0.3767,30.1000,-7.5600,13.1600
277855,0.7984,-0.6305,0.4221,26.8800,-3.0100,7.0700
277898,0.8286,-0.6022,0.3997,22.5400,-5.6700,3.6400
277941,0.8262,-0.5734,0.3470,35.1400,-2.5200,-1.0500
277984,0.7989,-0.5383,0.3206,13.8600,-27.0900,-6.9300
278028,0.7857,-0.4836,0.3143,23.1000,-16.6600,-16.3100
278072,0.7959,-0.4363,0.3377,12.6000,-14.9800,-15.6800
278116,0.7832,-0.4158,0.3738,8.6800,-13.0900,-13.3700
278160,0.7847,-0.4641,0.3611,16.3100,-11.2700,-11.9700
278204,0.8101,-0.4534,0.3611,9.1700,-7.7700,3.1500
278248,0.8316,-0.5017,0.4529,15.2600,-3.9900,6.5100
278291,0.8506,-0.4948,0.4529,17.9200,-14.2100,-1.6800
278334,0.8545,-0.4704,0.4211,17.8500,-21.2800,-5.6000
278377,0.8882,-0.4509,0.4236,23.0300,-35.0700,-18.0600
278420,0.8291,-0.4085,0.2948,24.5700,-34.5800,-28.5600
278464,0.8520,-0.3694,0.3401,14.2100,-23.1000,-21.9800
278508,0.8296,-0.3377,0.2996,8.8900,-26.0400,-14.9800
278552,0.8760,-0.3231,0.3543,23.8000,-11.8300,-19.2500
278596,0.9848,-0.1259,0.4499,66.7100,14.9800,-11.3400
278640,0.9780,-0.2557,0.3167,-19.2500,10.7100,4.1300
278684,0.9931,-0.2562,0.4670,-57.7500,20.8600,34.2300
278728,0.9218,-0.3797,0.3138,-58.8000,-34.2300,-4.1300
278772,0.9248,-0.3431,0.2816,-107.7300,-89.6700,-37.7300
278816,0.9096,-0.3348,0.2054,-21.1400,-31.9200,-48.3000
278860,0.9345,-0.3045,0.1962,-46.0600,-51.8000,-46.9000
278904,1.0638,-0.3436,0.0996,-79.8700,-77.2800,-55.5100
278948,1.1043,-0.3084,0.1157,-73.9200,-62.6500,-40.7400
278992,1.0638,-0.2274,0.0346,-63.4900,-37.5900,-45.2900
279036,0.9540,-0.2113,-0.0532,-93.0300,-104.9300,-84.1400
279080,1.0824,-0.2025,-0.0493,-41.7900,-86.3100,-65.8700
279124,1.0209,-0.1035,-0.1122,-2.9400,-17.9200,-23.8700
279166,1.0092,-0.1025,-0.0878,-39.3400,-31.0100,-31.2900
279209,0.9677,-0.1171,-0.1630,7.8400,-31.2900,-42.0000
279252,0.8930,-0.0678,-0.1625,67.8300,7.0000,-47.4600
279295,0.9048,0.1078,-0.1440,4.8300,-9.6600,-29.1900
279338,0.8481,0.1874,-0.1088,-108.7100,-48.7200,-3.7100
279381,0.8628,0.1781,-0.1747,-100.5200,-50.6100,1.8200
279424,1.0902,0.0307,-0.1010,-110.9500,-72.5200,-2.9400
279468,1.0780,0.0512,-0.4299,-58.8000,-19.7400,-17.5000
279512,1.1185,0.0386,-0.3640,-125.9300,-24.4300,-47.6700
279556,0.8325,0.3070,-0.2801,-88.2000,-32.6200,-73.5000
279600,0.7613,0.4421,-0.3284,-102.1300,-68.7400,-129.9200
279644,0.8691,0.4768,-0.4997,25.4800,38.1500,-1.7500
279687,0.8184,0.5641,-0.3680,-48.3700,14.1400,18.2700
279731,0.8862,0.4934,-0.3597,16.6600,67.6200,75.1100
279775,0.8804,0.3231,-0.0839,49.0700,85.4700,82.6000
279819,0.8335,0.3972,-0.0712,-31.6400,14.2800,107.7300
279863,0.8042,0.1918,0.2782,109.7600,43.8900,104.0200
279907,0.8550,-0.0839,0.1171,27.5100,-39.9700,91.4200
279951,0.8872,-0.0547,-0.2425,23.0300,-45.0100,89.3900
279995,1.0516,-0.2611,-0.3548,-18.2700,-21.2100,72.1000
280039,1.0570,-0.2206,-0.2547,8.5400,-13.7200,57.5400
280083,1.0433,-0.3270,-0.3377,-43.4000,-16.6600,59.3600
280126,1.0433,-0.3689,-0.3675,-33.2500,-9.1700,60.2700
280170,0.9697,-0.3797,-0.2006,17.5700,17.5000,87.7800
280213,0.9692,-0.4231,-0.1493,-6.0900,17.9200,36.2600
280256,0.9252,-0.3689,-0.2367,-23.0300,11.6900,10.0100
280300,0.9033,-0.3328,-0.1913,6.3000,15.8900,15.2600
280344,0.9145,-0.3728,-0.2074,-55.4400,-2.9400,5.7400
280388,0.9345,-0.3694,-0.2533,-25.6200,-21.8400,-6.5100
280432,0.9438,-0.3387,-0.2718,-16.8000,-27.4400,2.9400
280475,1.2132,0.2084,-0.4709,-68.6700,-39.4800,0.2800
280519,0.9472,-0.2904,-0.3426,-1.9600,-0.9100,-3.0100
280562,0.9160,-0.3323,-0.2660,-9.3800,0.0700,5.2500
280605,0.9321,-0.2860,-0.2484,-10.7100,3.5700,7.1400
280649,0.8813,-0.4148,-0.1869,-2.7300,0.7700,7.4200
280692,0.9262,-0.4172,-0.1693,-2.8700,-11.5500,12.7400
280736,0.9365,-0.4675,-0.1830,20.5800,-2.8700,14.9100
280780,0.9623,-0.4499,-0.2011,12.9500,-4.4100,2.5900
280824,0.9882,-0.4773,-0.3245,19.4600,-12.3200,-9.5900
280868,0.9867,-0.4455,-0.3440,47.7400,5.8100,-9.9400
280912,0.9399,-0.4055,-0.2674,67.0600,15.9600,-19.6700
280956,0.8564,-0.3855,-0.1649,85.2600,9.2400,-38.7100
281000,0.9370,-0.3006,-0.1669,47.8800,6.3700,-28.8400
281042,0.8725,-0.3787,-0.0093,-7.6300,-2.5200,-51.0300
281085,0.8491,-0.2528,0.0839,-43.8200,-25.9000,-72.9400
281129,0.8589,-0.1996,0.0015,-76.3000,-65.6600,-96.8800
281172,1.0272,-0.1854,-0.1274,15.1200,-132.5100,-104.6500
281216,0.9594,-0.0459,-0.3060,41.3000,5.5300,-58.5900
281260,0.9540,0.1298,-0.4660,4.7600,11.6200,-59.2900
281304,1.0834,0.1952,-0.5300,-1.6100,31.9900,-60.2000
281347,0.9789,0.2943,-0.4441,-23.1700,28.2800,-16.6600
281391,0.9082,0.2357,-0.2357,-141.0500,-4.6900,16.6600
281435,0.9540,-0.0634,-0.1410,-212.1700,3.4300,13.2300
281479,1.0004,-0.1962,0.1366,-191.8700,26.0400,-15.1200
281523,0.8623,0.0834,-0.0005,-113.7500,-2.0300,-2.5200
281567,0.9331,0.1435,-0.0254,-113.6800,-56.0700,3.4300
281611,0.9394,0.3187,-0.3148,-98.1400,-45.9900,22.1200
281655,1.1639,0.1142,-0.3982,-133.9100,0.2100,16.8700
281699,1.1790,0.1210,-0.2328,-159.5300,6.5800,16.8700
281742,1.0131,0.0073,0.0351,-146.5800,15.2600,0.3500
281785,1.0282,-0.1059,0.1386,-107.3800,-0.9800,-38.2200
281828,0.9404,0.0825,0.2542,-34.9300,-20.9300,-44.2400
281872,0.9365,0.2567,0.2118,-23.1000,21.3500,-31.2900
281916,0.9048,0.2464,0.1879,-5.7400,-23.5200,-43.8900
281959,0.9165,0.2557,0.1259,7.7000,-44.8000,-9.1000
282002,0.8652,0.2318,0.0805,20.3000,-85.8900,-80.0100
282045,0.7740,0.4943,-0.5114,19.4600,-85.9600,-14.7000
282089,0.9457,0.4177,-0.6364,-19.7400,-32.6900,38.2900
282133,1.0019,0.2796,-0.5778,-70.9100,-10.5700,51.8000
282177,1.0316,0.1840,-0.4914,-29.6800,26.6000,38.5000
282221,1.0287,0.0190,-0.3953,-29.9600,59.7100,9.5900
282265,1.0341,-0.0434,-0.1381,-20.8600,38.5000,-38.5700
282309,0.9267,0.0268,0.0434,22.5400,34.5800,-73.0100
282353,0.8760,0.1371,0.0996,54.6000,9.8000,-90.2300
282397,0.8135,0.2904,0.1025,93.5900,-22.8900,-131.3200
282441,0.5827,0.9248,-0.1532,110.3200,-39.9000,-106.3300
282485,0.6954,1.0555,-0.4729,10.1500,-29.8200,-14.1400
282529,0.8306,1.0580,-0.6285,-58.8000,31.2900,48.0900
282573,0.8398,0.6978,-0.5749,-113.2600,77.9800,131.7400
282617,0.9072,0.3196,-0.1723,-142.2400,84.2100,146.9300
282660,0.6525,0.0146,0.2855,-224.4200,10.2900,116.6900
282704,0.9057,-0.2352,0.4455,18.9700,-42.8400,56.9800
282748,0.7974,-0.2499,0.3587,107.3800,-46.7600,-0.9100
282791,0.8052,-0.1469,0.1728,82.4600,-44.1000,-9.6600
282835,1.0482,0.0976,-0.1869,52.3600,-30.5900,-31.2200
282879,1.1102,0.6090,-0.3074,2.8000,-16.5900,-21.0700
282923,0.9658,0.6149,-0.1991,-17.8500,-19.9500,-0.2800
282967,0.9970,0.3938,-0.1322,2.0300,-47.1800,21.7700
283011,1.0394,0.2172,-0.2011,-4.8300,-28.3500,26.4600
283054,1.0180,0.1674,-0.1791,-2.4500,-10.2900,32.2000
283097,1.0189,0.1825,-0.2250,-2.6600,-11.6200,29.4700
283141,1.0404,0.1937,-0.3065,-2.7300,-4.4100,25.1300
283184,1.0663,0.1181,-0.2230,-33.7400,-4.4800,20.9300
283228,1.2239,-0.0878,-0.2826,0.2100,2.2400,-7.9100
283271,0.8467,0.1889,-0.0810,-35.9100,-17.4300,-10.9200
283315,1.0024,0.2196,0.0142,-56.2100,16.9400,12.1100
283359,1.0824,0.1064,-0.1279,-63.1400,20.8600,9.1700
283403,1.1297,0.0239,0.1479,-1.2600,26.5300,-18.3400
283447,1.1697,0.0639,0.1825,56.1400,16.8000,-86.3800
283491,0.9448,0.0595,0.0107,117.1800,-21.0000,-47.8100
283534,0.8730,0.2889,-0.3758,38.7100,-42.0700,-62.5800
283578,0.8628,0.2728,-0.3353,-3.6400,2.8700,-96.0400
283622,0.9560,0.2435,-0.3314,-6.7200,11.8300,-120.6100
283666,0.9594,0.1957,-0.0659,10.2900,18.4100,-143.5000
283709,0.5968,-0.0234,0.0703,166.1100,32.4800,-317.3800
283753,0.2684,0.7515,-0.3606,200.5500,1.6800,-292.6700
283797,-0.1601,0.9814,-0.5519,149.5200,32.2000,-183.6100
283841,0.1230,1.4982,-0.6329,26.1800,-20.1600,-91.2100
283885,0.0996,1.3562,-0.5998,-32.2000,-9.5900,12.8100
283929,0.2865,0.8442,-0.3650,11.2700,20.3700,13.7200
283973,0.3606,0.7745,-0.3016,-11.2700,20.7200,27.5800
284017,0.3792,0.8106,-0.3182,-3.6400,-14.0700,0.2800
284061,0.3924,0.8223,-0.3894,15.1200,-12.8800,2.8000
284105,0.3894,0.7964,-0.3841,7.0000,-10.6400,-2.8000
284149,0.3875,0.8276,-0.3884,0.1400,-13.7200,4.6900
284192,0.3631,0.8325,-0.4138,3.3600,-12.3200,7.0700
284236,0.3699,0.7837,-0.3953,12.4600,-12.7400,3.2200
284280,0.3811,0.8028,-0.4216,10.0800,-10.5700,14.0700
284324,0.4172,0.7452,-0.4348,7.3500,-14.4900,8.7500
284368,0.3958,0.8052,-0.4924,10.0100,-7.7000,11.2000
284412,0.4446,0.8018,-0.4812,3.1500,-8.3300,7.7000
284455,0.4002,0.8442,-0.4831,1.8200,-3.2200,11.9700
284498,0.3924,0.7325,-0.4358,6.3000,17.7800,12.4600
284541,0.3738,0.8111,-0.3884,1.7500,14.0000,22.4700
284585,0.4885,0.7588,-0.4329,5.4600,31.9200,37.8000
284629,0.4260,0.8037,-0.3919,3.5000,23.8700,51.0300
284672,0.5617,0.6812,-0.4192,59.5700,67.1300,75.9500
284716,0.7164,0.6056,-0.4451,26.4600,104.7200,77.9800
284760,0.6661,0.6100,-0.3719,21.2800,54.4600,41.0900
284804,0.7803,0.6344,-0.4055,41.3000,82.9500,28.7000
284848,0.7227,0.6539,-0.4421,-10.1500,47.3900,22.1200
284892,0.7432,0.6188,-0.3875,-9.3800,28.9800,45.6400
284935,0.7291,0.7203,-0.3733,-0.4200,-27.9300,82.8100
284978,0.7813,0.5261,-0.1962,-2.4500,7.7700,123.4800
285021,0.7501,0.3875,-0.1386,14.4900,-0.9800,122.9200
285065,0.9126,0.2025,-0.2225,-23.3800,-55.0900,67.2000
285109,0.9096,0.2860,-0.1913,-20.1600,-40.7400,30.9400
285153,0.9062,0.3460,-0.2826,-19.8100,-72.5900,59.8500
285196,0.8755,0.2987,-0.3192,-10.7800,-45.5000,37.3800
285240,0.9184,0.0429,-0.5500,31.9200,-10.7800,35.7700
285284,0.8672,0.1942,-0.3953,-8.6800,-26.8800,36.9600
285328,0.9233,0.2284,-0.4085,1.2600,-24.4300,39.5500
285371,0.8999,0.2113,-0.4255,12.2500,-19.3900,48.0900
285415,0.9072,0.0356,-0.4587,16.1700,-3.6400,41.5800
285458,0.8706,0.0849,-0.4792,-10.5700,-14.2100,48.0200
285502,0.9555,0.2879,-0.4602,19.1800,-34.1600,67.6900
285546,0.9238,0.0342,-0.4924,-6.0200,-27.3700,28.1400
285589,0.8291,-0.0059,-0.5104,-0.7700,-20.0900,44.5200
285633,0.9018,-0.0571,-0.5461,13.9300,-16.0300,37.0300
285677,0.8769,-0.1176,-0.5812,12.1100,-11.4800,27.1600
285721,0.8935,-0.0786,-0.5051,8.9600,-8.3300,20.4400
285764,0.8472,-0.0503,-0.4499,21.0000,-2.8000,31.8500
285807,0.8101,-0.0390,-0.4695,47.5300,0.2800,46.4100
285851,0.7954,-0.0439,-0.4968,60.9000,9.7300,73.1500
285895,0.8696,-0.1610,-0.5344,80.5700,16.0300,105.7700
285939,0.9228,-0.3055,-0.5373,61.4600,16.7300,93.3800
285983,0.8423,-0.4290,-0.4397,119.4900,22.4700,69.6500
286027,0.6876,-0.4509,-0.2015,81.6900,19.6700,66.6400
286071,0.6115,-0.5348,-0.2586,-16.2400,-10.7100,56.2100
286115,0.6046,-0.6061,-0.3226,87.7100,2.8000,60.4800
286158,0.6525,-0.6027,-0.0874,38.6400,-21.6300,61.2500
286202,0.7154,-0.7754,-0.3743,-32.2000,-35.0700,39.3400
286246,0.6959,-0.7725,-0.4480,36.3300,6.0200,48.3000
286290,0.5573,-0.7227,-0.3558,54.6700,15.8200,40.8800
286333,0.6324,-0.8711,-0.1723,11.9700,-24.2900,16.4500
286377,0.7496,-1.0228,-0.1752,22.0500,-29.7500,-4.2700
286420,0.7710,-1.0224,-0.2630,24.8500,-7.4900,-19.1100
286464,0.7740,-1.0302,-0.3933,65.3100,33.2500,-57.5400
286508,0.7432,-0.9477,-0.3006,16.4500,24.8500,-76.7200
286552,0.7252,-0.8359,-0.1732,39.6200,-13.8600,-91.1400
286596,0.9199,-0.8789,-0.1879,93.5200,-14.0700,-107.9400
286640,0.9257,-0.7754,-0.2347,79.8000,23.3100,-121.4500
286684,0.9506,-0.7115,-0.1557,72.5900,33.8800,-140.2100
286728,0.9457,-0.5876,-0.0439,69.0200,21.1400,-148.4700
286772,0.7881,-0.3211,-0.0493,75.5300,-7.2800,-130.1300
286816,0.7413,-0.1386,-0.0878,101.8500,9.9400,-105.7700
286860,0.7154,0.0825,-0.2372,98.1400,17.3600,-61.7400
286903,0.7930,0.3470,-0.1469,141.0500,34.6500,14.7700
286947,0.6393,0.2377,0.1508,11.6900,44.8000,51.5200
286991,0.8930,-0.0976,0.1625,60.7600,112.1400,12.6700
287035,1.0941,-0.1972,0.2894,29.7500,72.9400,-7.2800
287079,0.9633,-0.1430,0.4470,-26.0400,-15.4000,-42.0000
287123,0.6598,-0.0024,0.3528,-67.2000,-34.9300,-16.5200
287166,1.1009,-0.2440,0.3972,-2.8000,-38.1500,7.8400
287210,1.2298,-0.1884,0.5505,-14.0700,-3.4300,-27.0900
287254,0.8355,-0.3728,0.5827,59.7100,-139.7900,-108.7100
287298,0.7910,-0.1098,0.3484,-11.2700,-153.9300,-105.2800
287342,0.6549,0.0342,0.2772,14.0700,-216.3700,-117.2500
287386,0.8194,0.3055,-0.6032,10.1500,-240.5200,-26.3900
287430,0.8501,0.2381,-0.2767,-64.6800,-255.9900,-43.5400
287474,0.9360,0.4177,-0.7979,-42.3500,-84.2100,-46.1300
287518,0.6232,0.2821,-0.4904,6.0900,-58.2400,-44.4500
287562,0.6393,0.5641,-0.8633,20.0900,22.4700,-52.1500
287606,0.7286,0.3821,-0.5256,-4.8300,-34.3000,-77.1400
287650,0.6588,0.4060,-0.6124,-8.8200,10.3600,-95.6900
287694,0.6495,0.5749,-0.6593,-48.4400,-68.1800,-7.1400
287738,0.6783,0.6349,-0.5466,-64.7500,-48.6500,-34.2300
287782,0.5739,0.6051,-0.6051,6.6500,22.1900,-61.4600
287826,0.5949,0.5744,-0.5456,23.1000,39.9000,-67.4800
287870,0.5334,0.6315,-0.6017,24.9200,51.7300,-53.1300
287914,0.6002,0.6222,-0.5075,30.4500,11.9700,-41.5100
287958,0.6066,0.5998,-0.5378,34.1600,10.2200,-15.6800
288000,0.5856,0.5641,-0.6276,46.1300,-0.3500,-23.1700
288044,0.5597,0.5827,-0.5597,7.1400,-22.6100,-10.0800
288087,0.5788,0.5822,-0.7515,21.0000,6.0900,-4.9000
288130,0.5656,0.5949,-0.6407,3.4300,-19.7400,-4.5500
288173,0.5656,0.5915,-0.5300,5.2500,-12.0400,3.9900
288216,0.5129,0.5671,-0.6100,1.4000,-6.9300,-2.4500
288259,0.4817,0.5485,-0.5778,8.1900,-29.8900,4.1300
288302,0.5802,0.5651,-0.7081,16.2400,-12.5300,7.6300
288345,0.4865,0.5597,-0.7159,-0.4200,-28.9800,8.8900
288388,0.5070,0.5695,-0.7213,0.2100,-9.2400,14.8400
288431,0.4992,0.5505,-0.6710,2.9400,-1.4700,6.0900
288475,0.4870,0.5139,-0.6368,8.0500,-12.0400,13.0900
288519,0.5505,0.5329,-0.6847,3.6400,-14.3500,12.3200
288563,0.5431,0.5148,-0.6798,4.1300,-33.1800,23.4500
288607,0.4919,0.5046,-0.7061,6.0200,-16.8000,20.5100
288651,0.5383,0.5344,-0.6539,10.1500,-11.5500,10.5700
288695,0.4841,0.5202,-0.6637,8.3300,0.8400,7.9800
288738,0.5100,0.4900,-0.6769,4.2700,-10.9900,11.2000
288782,0.5036,0.5031,-0.6564,-13.6500,-21.3500,18.4100
288826,0.5324,0.4875,-0.7061,-0.4200,-5.5300,8.7500
288869,0.5300,0.4807,-0.7174,-4.6200,-10.4300,11.6200
288912,0.5441,0.4582,-0.7120,-1.1200,-10.3600,14.4900
288956,0.5495,0.4592,-0.7081,7.7700,-7.4200,11.8300
289000,0.5495,0.4763,-0.7061,-2.1700,-14.2800,11.2000
289042,0.5275,0.4724,-0.7183,8.8200,-20.6500,15.9600
289086,0.5592,0.4573,-0.7559,11.5500,-12.6700,14.3500
289130,0.5436,0.4534,-0.7261,-9.3800,-21.2800,12.2500
289173,0.5353,0.4470,-0.7647,-9.5200,-11.2000,11.2000
289217,0.5100,0.4743,-0.7891,-9.1000,-3.1500,15.7500
289260,0.4363,0.5295,-0.8843,-8.8900,22.8200,40.1800
289303,0.5314,0.4807,-0.7139,4.0600,71.2600,56.0000
289347,0.5392,0.4719,-0.7208,-30.7300,148.4700,56.9100
289391,0.7042,0.4016,-0.5963,-26.0400,197.1200,85.3300
289435,0.7910,0.3314,-0.3582,14.5600,161.8400,97.9300
289479,0.8769,0.2664,-0.3099,3.5000,116.1300,92.8200
289523,0.8560,0.1615,-0.2255,-15.8900,80.4300,99.5400
289567,0.9233,0.1342,-0.1200,-28.7700,73.5000,98.9800
289611,0.9516,0.0644,-0.0508,-40.7400,50.6100,81.2000
289655,0.9409,0.0132,-0.0722,-24.7100,41.4400,83.4400
289699,0.9760,-0.0351,0.0088,-46.9700,14.9800,94.8500
289743,0.9296,-0.1630,-0.0083,-36.0500,8.1900,114.2400
289787,0.9853,-0.2191,0.0342,-24.9200,18.1300,121.8000
289831,0.9623,-0.4426,0.0088,-38.1500,-9.1000,123.4800
289875,0.9496,-0.4665,-0.0776,-80.9900,-22.3300,131.6700
289918,0.8926,-0.5344,-0.1030,-46.3400,-4.8300,107.1000
289962,0.8174,-0.5929,-0.0420,-61.4600,-18.8300,89.6700
290006,0.8042,-0.6193,-0.1396,-24.6400,-11.2000,74.6900
290050,0.7901,-0.6227,-0.1288,-23.3800,-10.2200,64.6100
290094,0.7403,-0.7159,-0.1498,1.5400,-8.4700,53.2700
290137,0.7871,-0.7154,-0.1649,17.5000,-2.6600,37.8000
290181,0.6344,-0.6612,-0.2201,-108.8500,-7.2800,26.6000
290225,0.6978,-0.7159,-0.1932,0.9800,3.2200,-10.8500
290268,0.7115,-0.7305,-0.1962,28.4900,10.5000,-9.1700
290311,0.6925,-0.6539,-0.1815,1.2600,13.7900,8.4700
290355,0.7003,-0.6647,-0.1850,-39.0600,14.7000,12.6700
290399,0.9238,-0.6412,-0.0883,41.5100,39.4100,2.7300
290443,0.7613,-0.6964,-0.0366,46.0600,50.6800,-9.3100
290487,0.6603,-0.7857,-0.1542,-0.3500,44.3100,-3.7800
290530,0.7603,-0.7271,0.0869,67.0600,50.8200,2.5200
290574,0.6934,-0.7203,0.2074,25.7600,8.6800,0.3500
290617,0.7476,-0.7281,0.0547,32.2000,-1.1900,1.3300
290660,0.6847,-0.7286,0.0356,136.5700,7.7700,2.5900
290703,0.7403,-0.7027,0.1903,-21.9800,1.6100,-11.2000
290747,0.7920,-0.7110,0.1820,-9.5900,-18.2700,1.1200
290790,0.7671,-0.7164,0.1747,-9.3800,-21.9800,-7.2100
290833,0.7706,-0.7003,0.1484,15.4700,-30.0300,-9.4500
290875,0.7315,-0.6798,0.0908,-2.6600,-32.3400,-20.3700
290919,0.8086,-0.6974,0.0971,2.2400,-26.5300,-31.3600
290963,0.8696,-0.6554,0.0747,-8.8200,-34.8600,-46.9700
291007,0.7754,-0.6261,0.1303,-2.3100,-46.0600,-55.0200
291051,0.7954,-0.5602,-0.0112,6.3700,-24.4300,-50.3300
291095,0.9028,-0.5524,0.0332,1.3300,-27.1600,-49.2800
291139,0.8652,-0.5148,0.0800,-16.8000,-37.9400,-51.8700
291183,0.8642,-0.5505,0.0464,-19.0400,-45.4300,-64.4700
291227,1.0224,-0.6315,-0.0146,-43.5400,-43.1200,-83.7200
291271,1.0106,-0.5871,-0.0234,-18.1300,-53.4800,-107.5200
291315,1.0541,-0.5402,-0.1557,-6.5100,-58.5200,-119.2800
291359,1.0004,-0.4275,-0.1049,27.5800,-55.0200,-132.3700
291403,0.7720,-0.1200,0.0332,114.9400,-36.7500,-137.6900
291447,0.7364,-0.0488,-0.0913,62.1600,-64.6100,-141.8200
291491,0.8247,0.0639,0.0190,107.5200,-91.9800,-164.1500
291535,0.4651,0.2499,-0.5700,99.0500,-51.0300,-157.2900
291579,0.2235,0.8940,-0.4699,28.8400,-59.8500,-55.8600
291623,0.3723,0.8208,-0.7047,-55.3700,-130.9000,42.5600
291666,0.6237,0.5417,-0.8740,-100.3800,-133.7700,115.2200
291710,0.9809,0.1767,-1.1868,-106.6800,-42.7700,123.3400
291754,1.1239,-0.1303,-0.8179,-17.2900,-13.5100,46.4800
291798,1.0682,-0.1825,-0.7135,-6.5100,27.3000,-36.6800
291841,1.0785,-0.1005,-0.6486,70.4200,116.9700,-122.4300
291885,1.0058,-0.1249,-0.4714,81.8300,96.0400,-170.7300
291929,0.6534,0.1005,-0.1932,96.8800,68.1100,-204.6800
291973,0.3640,0.7793,-0.4914,158.4100,156.1700,-150.6400
292017,0.4924,0.7364,-0.4153,77.8400,51.8000,-72.1000
292061,0.3787,0.9501,-0.6232,17.8500,-48.6500,1.1900
292105,0.3455,0.9687,-0.7218,-9.2400,-17.3600,57.0500
292149,0.4255,0.8560,-0.5597,-79.9400,-6.2300,56.7000
292193,0.4397,0.7354,-0.5104,-54.2500,-1.8200,118.0900
292237,0.5158,0.5036,-0.5158,-33.8100,57.7500,151.2700
292281,0.8389,0.1825,-0.5788,-114.3100,40.1800,161.2800
292325,0.7774,0.0405,-0.4904,-143.3600,-27.8600,184.1000
292369,0.8389,-0.2860,-0.4475,-97.3700,-8.3300,198.1700
292413,0.9243,-0.3484,-0.1820,-78.6800,23.8700,171.5000
292457,0.9726,-0.4055,-0.0717,-65.5900,48.8600,129.2200
292500,1.0082,-0.4119,-0.1796,-48.0900,23.5200,95.4100
292544,0.8725,-0.4597,-0.2889,-39.7600,15.9600,104.2300
292588,1.0868,-0.5153,-0.1405,-44.5200,3.7100,95.2000
292632,0.8389,-0.5085,-0.0849,-50.8900,-11.2700,76.7900
292676,0.9677,-0.5553,-0.1606,-24.3600,-17.5000,47.0400
292719,0.8272,-0.4870,-0.1615,-10.5000,9.5200,37.3100
292763,0.8667,-0.5261,-0.2045,29.2600,6.1600,36.6100
292807,0.8545,-0.5222,-0.2689,3.5700,-3.6400,26.5300
292850,0.9267,-0.5758,-0.3157,24.5700,7.9800,21.8400
292894,0.8818,-0.5573,-0.1635,21.4200,2.0300,23.4500
292938,0.8257,-0.6232,-0.1825,26.7400,-10.5700,17.9200
