timestamp,ax,ay,az,gx,gy,gz
210262,-1.3498,0.2884,-0.3504,56.9800,-45.4300,-62.5800
210306,-1.1966,0.2113,-0.2333,34.3000,-12.9500,-12.6000
210350,-1.2830,0.2362,-0.3880,59.1500,-31.0800,1.2600
210394,-1.2288,0.1566,-0.3148,14.0000,58.4500,74.1300
210438,-1.2434,0.0273,-0.1103,-8.4000,106.6100,62.5100
210482,-1.3269,0.0532,-0.0093,4.2700,103.8800,-5.4600
210526,-1.2673,0.1854,-0.0366,20.7200,94.0100,-22.5400
210570,-1.2019,0.2508,-0.0722,19.1800,101.0800,29.4000
210614,-1.1117,0.1425,-0.0015,5.8800,134.8200,72.8000
210658,-0.9921,0.0346,0.0859,8.6100,167.8600,77.7700
210702,-0.8623,-0.0229,0.2191,18.9700,172.2000,47.2500
210746,-0.7388,-0.0688,0.2899,30.5200,120.6800,-5.1100
210789,-0.6920,-0.0264,0.2796,58.1000,39.1300,-65.5200
210833,-0.5880,0.0307,0.1664,40.8800,-42.3500,-50.6100
210876,-0.7471,0.0039,0.1215,12.9500,-124.6000,-19.2500
210920,-0.8662,0.0659,-0.0874,18.0600,-185.5000,-11.3400
210964,-0.9648,0.0888,-0.2172,32.4100,-166.5300,10.9900
211008,-1.0760,0.0420,-0.1796,13.0900,-123.1300,30.3100
211052,-1.2620,-0.0088,-0.0473,7.9800,-118.7900,-2.4500
211095,-1.3967,0.0425,-0.1161,41.3000,-139.6500,-39.4800
211139,-1.3278,0.0961,-0.2806,66.0100,-179.3400,-12.6000
211183,-1.4289,0.0888,-0.4616,36.1900,-185.9900,39.6200
211227,-1.3205,0.0664,-0.6012,12.1100,-64.6100,25.0600
211271,-1.1849,0.0937,-0.3406,30.5200,69.0900,-15.4700
211315,-1.1102,0.1825,-0.1186,18.8300,82.0400,-26.1100
211359,-1.0516,0.3933,-0.0776,-13.5100,50.4700,27.0900
211403,-1.1131,0.2733,-0.0073,-35.4200,56.0000,117.7400
211447,-0.9589,0.0259,-0.0015,18.2700,79.0300,83.2300
211491,-0.9052,-0.0815,-0.0024,42.9100,76.3700,-31.2900
211535,-0.9096,-0.0029,-0.0254,57.3300,80.6400,-147.7700
211579,-0.9374,0.1376,0.0132,42.4900,86.3100,-168.9800
211623,-0.8418,0.1859,0.0795,22.8900,78.3300,-111.3000
211666,-0.7496,0.0576,0.0029,-64.6100,28.9100,20.5100
211709,-0.8657,0.0268,0.0947,43.7500,-13.7200,-68.1100
211752,-0.8023,0.0044,-0.0015,46.1300,-50.7500,-21.9100
211796,-0.8696,-0.0639,-0.0063,11.7600,-70.4900,24.7100
211840,-0.9838,-0.0639,-0.0176,-5.9500,-105.7000,33.1100
211884,-1.1756,0.0293,-0.1098,-10.4300,-146.2300,32.7600
211928,-1.4367,0.0659,-0.1869,3.9200,-136.8500,50.6800
211972,-1.3435,0.0390,-0.2547,-13.7200,-107.0300,72.1700
212016,-1.4596,0.0791,-0.3977,21.4200,-119.4200,14.9800
212060,-1.3322,0.1952,-0.5427,38.6400,0.0000,14.8400
212104,-1.2703,0.1342,-0.1752,15.0500,157.5700,41.7900
212148,-1.3054,0.1196,0.1083,-2.6600,172.7600,45.2200
212192,-1.0995,0.1269,0.1640,-16.6600,111.2300,70.3500
212236,-1.0585,0.1362,0.0854,-15.6800,52.0100,89.6000
212280,-0.9887,0.1240,-0.0210,-10.5700,66.7100,96.8800
212324,-0.8833,0.0498,0.0830,12.4600,100.4500,77.9100
212368,-0.7779,0.0098,0.1693,23.3100,108.4300,43.8200
212412,-0.7247,-0.0112,0.2216,35.1400,69.5100,-2.1700
212455,-0.7496,0.0078,0.2094,63.4200,1.9600,-52.5700
212499,-0.8135,0.0747,0.1440,88.0600,-62.6500,-98.0000
212542,-0.8359,0.0537,-0.0532,39.2700,-104.5100,-58.8000
212586,-0.9296,0.0732,-0.1435,24.4300,-72.0300,-44.1000
212630,-1.0770,0.0952,-0.0834,50.6800,-42.3500,-43.8200
212674,-1.1936,0.1113,0.1005,41.9300,-41.7900,10.0100
212718,-1.1488,0.1025,0.0639,31.1500,-116.9700,56.4900
212762,-1.2571,0.0888,-0.1845,37.5900,-177.0300,49.0000
212806,-1.3093,0.1518,-0.4192,67.0600,-140.9800,-14.0000
212850,-1.0956,0.2196,-0.4002,100.5900,24.6400,-39.0600
212894,-0.9750,0.2347,-0.0620,87.0100,102.0600,-15.3300
212938,-0.8677,0.2186,0.0956,65.5900,78.9600,25.3400
212982,-0.6827,0.2479,0.1508,6.3000,7.1400,97.0200
213025,-0.8228,0.1371,0.1557,71.9600,-34.7900,43.0500
213069,-0.8965,0.0322,0.0439,84.7700,-75.6000,15.5400
213113,-0.9628,0.0356,-0.0673,64.7500,-89.4600,-9.8000
213157,-0.9565,0.0932,-0.1645,60.1300,-88.3400,-44.3100
213200,-0.9711,0.1581,-0.2098,31.3600,-60.9000,-46.0600
213244,-1.0165,0.2162,-0.1737,3.3600,-31.2200,-53.7600
213288,-1.1424,0.2894,-0.1318,1.1200,-32.6900,-71.2600
213332,-1.3083,0.3030,-0.1620,33.1100,-13.0900,-74.5500
213375,-1.2029,0.1976,-0.0220,11.5500,8.9600,-12.8100
213418,-1.2581,0.1854,-0.2069,30.5900,-58.0300,-5.4600
213461,-1.3874,0.2259,-0.3523,11.2000,-45.9900,56.8400
213505,-1.3601,0.1576,-0.3655,-1.7500,64.9600,94.2200
213548,-1.3235,0.1142,-0.1191,15.7500,151.9000,70.2800
213592,-1.2761,0.0942,0.0654,6.9300,192.7800,59.6400
213636,-1.2024,0.0620,0.1625,4.6900,177.2400,50.7500
213679,-1.0399,0.0898,0.1771,41.5100,147.7700,9.3800
213723,-0.8896,0.0893,0.1991,18.4100,130.4100,31.3600
213767,-0.7340,0.0029,0.2074,2.7300,101.8500,35.9100
213810,-0.6686,-0.0146,0.2054,-1.2600,37.5200,13.7200
213853,-0.6163,-0.0093,0.1103,-14.7000,-10.5000,-8.8200
213896,-0.6930,0.0122,0.0630,-15.1200,-32.7600,-38.5000
213940,-0.7945,0.0337,0.0527,-24.1500,-59.1500,-59.7800
213984,-0.8438,0.0717,0.0488,-16.2400,-73.5000,-84.9100
214027,-1.1263,0.1313,0.1171,-8.4700,-110.6000,-101.1500
214071,-1.3742,0.2172,0.0644,28.4200,-172.5500,-91.2800
214115,-1.3142,0.2567,-0.1166,29.4000,-230.8600,9.5900
214159,-1.3566,0.1469,-0.3470,-14.9100,-254.8000,76.2300
214203,-1.4440,0.1152,-0.5978,-10.4300,-182.9800,6.7900
214247,-1.2781,0.1591,-0.4890,29.3300,11.9700,-48.1600
214291,-1.1375,0.1806,-0.1547,40.2500,109.8300,-47.8100
214334,-1.0409,0.2069,-0.0010,28.1400,84.1400,-13.2300
214378,-1.0024,0.2806,-0.0298,46.8300,31.0800,1.9600
214421,-0.7964,0.3323,-0.1049,38.9900,43.9600,69.0200
214465,-1.1131,0.1649,0.0888,13.5800,46.0600,137.1300
214509,-0.9623,0.0161,0.0654,8.8200,-4.9000,128.6600
214553,-0.9570,-0.0747,-0.0322,8.8200,-14.4200,26.7400
214597,-0.9521,-0.0527,-0.1537,22.6800,4.9000,-93.0300
214641,-1.0433,0.0669,-0.1396,16.0300,57.4700,-161.9100
214685,-1.1068,0.1454,0.0371,-8.6800,87.5700,-171.0800
214729,-1.1224,0.2035,0.0971,-3.7100,50.6100,-120.4700
214773,-1.0004,0.1728,0.0527,-12.1800,13.1600,-8.4700
214817,-0.9648,0.0888,0.1186,-38.7100,-23.7300,107.6600
214861,-1.0990,-0.0464,-0.0386,-28.8400,-93.8700,118.5100
214905,-1.1102,-0.0649,-0.2460,-21.2100,-95.3400,83.8600
214949,-1.0438,-0.0986,-0.2772,-19.0400,-0.9800,37.2400
214992,-1.0067,-0.1142,-0.0605,-21.4200,58.5900,-13.4400
215036,-1.0258,-0.0444,0.0312,-33.3200,28.7700,-58.4500
215080,-0.9916,0.1157,-0.1327,-8.7500,-15.1900,-76.7200
215124,-0.8686,0.1918,-0.1908,-12.6700,10.5700,-16.2400
215167,-0.8467,0.1205,-0.0298,-17.0800,36.4000,51.2400
215211,-0.8281,0.1405,0.0654,-43.9600,-9.1000,82.5300
215255,-0.9067,0.0151,-0.0527,4.3400,-50.8900,55.4400
215299,-0.9780,-0.0010,-0.1996,17.7800,-46.9700,16.9400
215343,-0.9902,0.0669,-0.2303,30.9400,8.3300,-26.1800
215386,-0.9916,0.1083,-0.0425,19.1100,43.0500,-25.1300
215430,-1.0014,0.1122,0.0913,-10.3600,38.7100,6.7900
215474,-1.0848,0.0576,0.1503,-31.0100,-2.6600,10.9200
215517,-1.1688,0.0903,0.0542,-13.8600,-42.0700,-19.6700
215561,-1.0350,0.1357,-0.0766,10.6400,-36.9600,-4.0600
215605,-0.9038,0.0127,-0.0268,-13.7900,-19.9500,23.8000
215649,-0.9911,0.0000,-0.0898,5.7400,-29.9600,-49.8400
215693,-1.1219,0.1264,-0.1357,55.2300,-8.0500,-98.6300
215737,-0.9467,0.2172,-0.0571,76.4400,28.3500,-33.5300
215781,-0.7954,0.1415,0.0654,43.1200,15.8200,73.7100
215825,-0.8003,0.0156,0.1127,6.8600,-25.1300,109.9700
215869,-0.9043,-0.0351,0.0249,-27.0900,-75.3900,86.3800
215913,-1.0014,-0.0210,-0.1215,0.5600,-82.1800,-2.5200
215956,-1.0346,0.1244,-0.2162,25.8300,-49.8400,-87.5000
216000,-1.0194,0.2786,-0.2011,44.9400,10.3600,-103.3200
216043,-0.9565,0.2996,-0.0337,11.4800,36.2600,-34.7900
216086,-0.9531,0.2050,0.0781,-11.2000,20.1600,28.9800
216130,-0.9989,0.0527,0.0961,-35.4900,-14.8400,31.0100
216173,-1.0951,0.0747,0.0107,-16.7300,-47.8800,-36.9600
216217,-1.1780,0.1957,-0.1035,-12.4600,-59.0100,-50.2600
216261,-1.1805,0.2269,-0.1630,-18.2700,-28.7700,-10.0800
216305,-1.1556,0.1459,-0.0390,-50.3300,-9.3100,29.4700
216349,-1.2493,0.1810,-0.1762,-18.1300,-35.0000,-6.0200
216392,-1.2268,0.2084,-0.2284,-21.9100,21.7000,40.7400
216436,-1.2249,0.0493,-0.0312,-33.4600,67.4100,106.4700
216480,-1.1619,-0.0493,-0.0068,-26.5300,56.4900,96.4600
216524,-1.0721,-0.0673,-0.0483,-9.3800,71.1900,37.4500
216567,-1.0253,0.0244,-0.0093,16.2400,102.7600,-13.6500
216611,-0.9521,0.0883,0.0698,-2.7300,120.6100,-3.8500
216654,-0.8525,0.0703,0.1161,-8.4000,107.9400,7.0000
216697,-0.7291,0.0722,0.1122,15.7500,80.6400,-5.4600
216740,-0.6647,0.0551,0.1479,10.9900,60.7600,9.5900
216783,-0.6764,0.0024,0.1620,3.9200,16.3100,11.5500
216826,-0.7471,-0.0190,0.1044,-4.6900,-38.7100,-2.1000
216869,-0.8774,0.0137,0.0117,2.9400,-65.1000,-23.8700
216912,-0.9887,0.0386,-0.0146,4.4100,-74.0600,-28.1400
216955,-1.1370,0.0620,-0.0063,11.6900,-82.3900,-31.0100
216999,-1.2454,0.0952,0.0068,15.3300,-94.0100,-17.5700
217041,-1.1736,0.0981,-0.0664,6.5100,-125.9300,4.7600
217084,-1.1829,0.1059,-0.2059,-6.3700,-150.0100,-14.8400
217128,-1.3122,0.1962,-0.3387,1.0500,-96.7400,-71.1900
217171,-1.2615,0.2723,-0.3045,32.4800,9.6600,-66.9900
217215,-0.9594,0.2533,-0.0981,43.8900,68.0400,-4.7600
217259,-0.8179,0.1493,0.0356,20.4400,52.5700,59.0100
217303,-0.7657,0.0732,0.0766,0.4200,15.6100,62.5100
217347,-0.7954,-0.0098,0.0883,25.1300,-6.1600,15.4700
217391,-0.8755,0.0224,0.0420,31.4300,-43.6100,-36.1900
217435,-0.9970,0.1371,-0.0278,14.8400,-71.4000,-31.2200
217479,-1.0453,0.1850,-0.1000,-13.2300,-73.9900,12.6700
217523,-1.0570,0.1698,-0.1635,-21.7000,-47.8100,31.3600
217567,-1.0912,0.1044,-0.0630,-34.3000,-6.5100,22.8900
217610,-1.1170,0.0947,-0.0293,-18.3400,-0.4200,-33.5300
217654,-1.0819,0.1767,-0.0952,-1.9600,16.0300,-52.8500
217698,-1.0629,0.1191,0.0625,-28.8400,42.7000,-11.5500
217742,-1.1761,0.0508,0.1767,-74.9700,-7.7700,1.8200
217785,-1.3030,0.1435,-0.1274,-46.2700,-106.1200,-33.6700
217829,-1.1785,0.2201,-0.3689,-45.6400,-34.5800,50.5400
217873,-1.2073,0.0195,-0.1884,-69.8600,83.6500,135.6600
217916,-1.0995,-0.0547,-0.0405,-49.7700,124.5300,96.7400
217960,-1.1492,-0.0966,0.0947,-32.9000,120.4700,28.8400
218004,-1.0253,0.0386,0.0776,7.6300,89.5300,-22.8200
218047,-0.9462,0.0932,0.0693,0.9800,91.0700,8.9600
218090,-0.8838,0.0102,0.1157,-2.9400,86.2400,45.0100
218134,-0.8682,-0.0581,0.1108,0.9800,39.8300,42.7700
218178,-0.8047,-0.0468,0.0176,9.8700,21.0000,10.4300
218222,-0.7666,-0.0346,0.0586,3.3600,30.8700,-5.3900
218266,-0.7764,-0.0527,0.1308,-8.8200,16.3800,-13.0200
218310,-0.8642,-0.0542,0.1576,-20.0200,-26.7400,-29.3300
218354,-0.9936,-0.0234,0.1113,-37.2400,-62.1600,-53.8300
218398,-1.2537,0.0508,0.0683,-40.1800,-87.7800,-89.8800
218441,-1.2781,0.1835,-0.0825,-16.1700,-142.3800,-107.0300
218485,-1.0795,0.3006,-0.3201,5.1100,-127.7500,-53.4100
218529,-1.0809,0.2464,-0.3172,-10.1500,-16.3100,-3.4300
218572,-1.0814,0.1635,-0.0551,16.1000,51.5200,6.6500
218616,-0.9960,0.1386,0.1049,22.8900,24.9900,46.3400
218660,-0.7520,0.1044,0.1108,-0.4200,-49.9100,91.0000
218703,-0.8867,0.0381,-0.0630,-39.8300,-92.3300,98.2800
218747,-0.9282,0.0288,-0.1771,-48.9300,-68.6000,32.3400
218791,-1.0077,0.1640,-0.1664,-23.3100,-25.9000,-60.6900
218834,-1.0770,0.2962,-0.1181,-10.0100,-3.2200,-80.9200
218878,-1.0882,0.3392,-0.1044,-7.3500,0.7700,-36.1200
218921,-1.0551,0.3167,-0.1332,-1.5400,8.8900,10.9900
218964,-1.0346,0.1991,-0.0146,-13.2300,34.4400,56.8400
219008,-1.0516,0.0834,0.0634,-0.7700,35.0000,32.4800
219051,-1.0477,0.0776,0.0737,1.5400,13.9300,-7.1400
219094,-1.0585,0.1200,-0.0137,11.8300,5.3900,-28.1400
219137,-1.0355,0.1215,0.0132,6.9300,22.6800,-10.9900
219181,-1.0087,0.0625,0.1064,-25.6900,4.4100,14.4900
219224,-1.0580,0.0976,-0.0810,-25.4800,-48.5100,-5.5300
219267,-1.0795,0.1537,-0.2167,-28.2800,-12.8800,4.4100
219310,-1.1483,0.0703,-0.0693,-34.8600,58.4500,25.4800
219354,-1.1063,0.0449,0.0303,-18.0600,62.9300,-1.6800
219398,-1.0228,0.0381,0.0517,-10.6400,58.5900,-10.8500
219442,-0.9213,0.0439,-0.0063,11.6200,34.9300,-25.2000
219486,-0.8808,0.0659,-0.0371,-2.8000,41.1600,1.7500
219529,-0.8384,0.0210,0.0151,-12.5300,36.8200,0.7700
219573,-0.8491,0.0615,-0.0259,6.9300,11.5500,-9.8000
219616,-0.8662,0.0927,-0.0717,5.0400,6.4400,2.4500
219659,-0.8769,0.0595,-0.0698,5.7400,8.3300,6.7900
219702,-0.8818,0.0312,-0.0293,9.3100,3.3600,6.3700
219746,-0.9116,0.0454,-0.0059,16.2400,-7.1400,-3.9900
219789,-0.9423,0.0527,0.0425,3.1500,-16.5900,19.4600
219833,-0.9975,0.0083,0.1054,-14.9800,-23.1700,30.5200
219876,-1.1180,0.0049,0.1464,-25.9000,-50.4000,-13.0900
219919,-1.1868,0.1352,0.0283,-4.4100,-95.0600,-41.6500
219962,-1.1009,0.2176,-0.1015,1.8900,-114.5900,-2.1000
220005,-1.1531,0.1967,-0.2411,-24.3600,-109.5500,11.2700
220049,-1.2156,0.2386,-0.3138,5.3900,-39.8300,-18.2700
220093,-1.0721,0.1962,-0.1498,4.2000,71.1900,18.9700
220137,-0.8930,0.0883,0.0366,-6.3700,107.8000,45.9200
220181,-0.8154,0.0063,0.1147,2.0300,66.4300,4.6200
220224,-0.7623,0.0917,0.1113,20.7200,26.6700,-37.7300
220268,-0.7871,0.1093,0.0883,18.8300,-14.8400,-44.8000
220312,-0.9248,0.1342,0.0307,15.8900,-62.5800,-40.2500
220356,-0.9731,0.1679,-0.1215,11.8300,-83.7900,-20.8600
220400,-1.0087,0.1942,-0.1781,-3.5700,-62.9300,20.3700
220444,-1.0516,0.1854,-0.1937,-35.6300,-41.4400,39.6900
220488,-0.9638,0.1459,-0.2240,-4.2700,13.7900,9.8700
220531,-1.1595,0.1318,-0.1576,-14.9800,27.9300,-14.6300
220575,-1.2254,0.2059,-0.0908,-6.7900,42.9800,-17.0100
220618,-1.1297,0.1469,-0.1357,-0.2800,64.0500,-7.6300
220661,-1.0643,0.1503,-0.1527,2.4500,62.4400,7.2800
220704,-0.9628,0.1127,-0.2357,13.5800,32.7600,25.6200
220748,-1.0414,0.0937,-0.1845,29.5400,36.6800,25.8300
220791,-1.0585,0.0742,-0.1684,49.2100,44.5200,32.7600
220835,-1.0658,0.0815,-0.1737,51.8000,42.9100,19.1800
220879,-0.9540,0.0742,-0.1986,31.9200,24.3600,25.4800
220923,-0.9033,0.0498,-0.1850,38.5700,22.9600,28.8400
220967,-0.9194,0.0425,-0.1674,48.9300,36.1200,21.9800
221011,-0.8862,0.0322,-0.1606,57.1900,52.2900,18.4800
221055,-0.8374,0.0405,-0.1225,82.7400,58.8000,-0.4900
221099,-0.8394,0.0439,-0.1118,65.7300,31.0100,13.2300
221143,-0.8184,0.0522,-0.1449,54.6000,3.6400,2.5200
221186,-0.8818,0.0571,-0.1952,37.0300,-27.8600,4.5500
221230,-0.9799,0.0454,-0.2201,25.2000,-45.5700,7.6300
221273,-0.9662,0.0478,-0.2591,-0.2800,-50.0500,8.6100
221316,-1.0887,0.0776,-0.2777,-18.6200,-59.4300,-18.8300
221360,-1.1610,0.1391,-0.2816,-75.7400,-75.6000,-9.4500
221403,-0.9204,0.1049,-0.3494,-123.2700,-57.1900,32.7600
221447,-0.8877,0.0888,-0.2943,-107.3100,-52.4300,15.6800
221491,-1.0072,0.1444,-0.2577,-124.3900,-63.4200,-43.5400
221535,-1.0482,0.1557,-0.2006,-143.3600,-24.1500,-43.8200
221579,-0.9862,0.1659,-0.1562,-100.8700,-10.6400,-28.9800
221623,-0.9326,0.2235,-0.1806,31.1500,0.6300,-23.1000
221666,-0.9404,0.2201,-0.1059,-7.1400,5.2500,-3.4300
221709,-0.9096,0.1923,-0.1035,5.1100,-3.3600,-0.6300
221752,-0.8955,0.1835,-0.1630,-4.6900,-16.9400,36.6800
221796,-0.9521,0.1469,-0.1747,-2.2400,-13.6500,54.3200
221839,-0.9516,0.1357,-0.1908,-12.2500,-4.0600,36.0500
221883,-0.9091,0.1469,-0.1957,-36.4000,2.6600,12.8100
221927,-0.9467,0.1679,-0.0800,-28.7700,6.0200,0.3500
221970,-0.9721,0.1742,-0.1854,27.5800,-11.5500,-52.3600
222014,-1.0453,0.2352,-0.2840,-4.2000,-29.7500,-67.4100
222058,-1.1468,0.2450,-0.2572,9.1700,-25.1300,-77.1400
222102,-1.1849,0.2147,-0.2801,-2.7300,-15.9600,-36.1900
222145,-1.0912,0.1440,-0.2874,5.6700,-9.3800,-4.3400
222188,-1.1468,0.1000,-0.2133,8.1900,-27.4400,-21.1400
222232,-1.0907,0.0498,-0.1884,-35.4900,-19.8100,25.6200
222275,-1.0551,-0.0107,-0.1654,-12.1100,7.9100,55.4400
222318,-1.1307,-0.0371,-0.1127,48.1600,52.4300,28.2800
222361,-1.0658,-0.0005,-0.0834,83.7900,73.4300,14.8400
222405,-1.0014,0.0259,-0.0434,89.7400,72.6600,38.1500
222449,-0.9487,0.0195,-0.0044,104.8600,80.7100,65.3100
222493,-0.9067,0.0224,0.0185,114.4500,88.2700,75.6700
222537,-0.8852,0.0332,0.0298,102.6900,83.8600,69.6500
222581,-0.8096,0.0386,-0.0610,78.6800,63.6300,56.4900
222625,-0.7828,0.0512,-0.1420,77.0000,43.8200,14.4900
222668,-0.7906,0.0615,-0.1791,65.3800,17.9900,-2.9400
222711,-0.7774,0.0708,-0.2162,48.2300,-18.5500,-12.0400
222755,-0.8618,0.0600,-0.2464,14.4200,-54.8800,-21.2800
222799,-0.9526,0.0551,-0.2650,-23.5900,-71.2600,-23.5900
222843,-1.0634,0.0512,-0.2762,-56.1400,-81.9700,-9.9400
222886,-1.1175,0.0503,-0.2908,-76.3000,-80.5000,-9.0300
222929,-0.9706,0.0712,-0.3597,-95.0600,-103.5300,-36.5400
222973,-1.0024,0.0908,-0.3543,-125.5800,-137.4800,-70.9100
223016,-1.2137,0.1030,-0.2738,-139.3700,-127.6100,-93.5200
223060,-1.2288,0.1113,-0.1972,-143.3600,-82.7400,-61.2500
223103,-1.1541,0.0371,-0.2826,-55.3700,-54.5300,-36.7500
223147,-0.9999,0.1732,-0.1410,54.9500,-34.4400,16.6600
223191,-1.0024,0.0556,-0.0966,24.2900,-8.0500,53.4100
223234,-0.9575,0.0327,-0.0722,60.6200,18.4800,31.0800
223277,-0.9799,0.1259,-0.0869,50.7500,38.5700,59.1500
223321,-1.0394,0.0415,-0.1850,205.5900,54.2500,6.5100
223364,-1.1185,0.1523,-0.3694,150.9900,115.4300,7.0000
223407,-1.0463,0.0981,-0.1581,62.3700,171.0100,57.7500
223450,-0.8623,0.0156,-0.0400,-2.5200,107.8700,73.5700
223493,-0.7032,0.0005,-0.0210,-21.5600,-3.9900,53.6200
223536,-0.8481,0.0259,-0.1493,-50.2600,-90.6500,26.7400
223580,-0.9579,0.0937,-0.2972,-61.1100,-126.9800,5.7400
223623,-0.9984,0.1283,-0.3196,-129.3600,-90.3700,14.4900
223666,-0.9599,0.0278,-0.2723,-138.6000,-35.3500,-2.1700
223709,-1.0258,0.0483,-0.1240,-101.9200,15.6100,-43.4700
223752,-1.1239,0.0639,-0.0303,-66.9900,54.8800,-55.8600
223795,-1.0887,0.0869,-0.0337,-19.7400,20.6500,-91.7700
223838,-1.1492,0.1142,-0.0849,12.8800,8.8900,-93.6600
223881,-0.9418,0.1220,-0.0800,48.7900,32.2700,-55.7900
223924,-0.8652,0.1244,-0.0708,64.4700,45.7800,-6.1600
223967,-1.0277,0.1000,-0.0117,63.9800,57.2600,33.3200
224011,-1.1073,0.0551,0.0005,-28.8400,37.1700,75.8100
224054,-0.9428,-0.0283,-0.0742,-27.3700,-18.6200,80.0800
224098,-0.9453,-0.0483,-0.1352,-28.4200,-25.2000,61.4600
224141,-0.9384,-0.0630,-0.1171,-53.7600,11.4100,36.1900
224185,-0.8877,-0.0327,-0.0185,-89.4600,27.3700,-2.5200
224229,-0.8657,0.0142,0.0254,-131.0400,11.9700,-43.4000
224273,-0.9365,0.0664,0.0869,-119.6300,-24.9200,-105.9800
224317,-1.1190,0.1386,0.0956,-122.0100,-83.2300,-136.9900
224361,-1.2483,0.2142,-0.0034,-82.9500,-124.4600,-100.3800
224405,-1.1156,0.2064,-0.1542,-29.0500,-127.6800,-66.2900
224449,-1.1024,0.1371,-0.1606,-6.4400,-80.9900,11.6900
224492,-1.0551,-0.0044,-0.1161,4.2000,-29.0500,71.7500
224535,-1.0087,-0.1313,-0.0415,-20.2300,10.6400,76.6500
224578,-1.0707,-0.1747,0.0625,-29.5400,53.6200,33.0400
224621,-1.0609,-0.1440,0.1191,-32.5500,51.8000,-15.0500
224665,-1.0102,-0.0698,0.1157,-41.5100,22.8200,-18.4100
224708,-1.0116,0.0098,0.0678,-67.4800,3.2900,28.9800
224750,-1.0121,0.0122,0.0322,-75.1100,35.2800,84.4200
224794,-1.0136,-0.0478,0.1049,-83.9300,69.6500,111.4400
224838,-0.9296,-0.0634,0.1635,-81.5500,77.4900,87.9900
224882,-0.9594,-0.0273,0.2274,-87.6400,74.2700,29.0500
224925,-0.9301,-0.0020,0.2147,-80.0800,52.5000,-19.3200
224968,-0.9477,0.0698,0.2196,-70.3500,23.3800,-59.2900
225011,-1.1849,0.0766,0.2303,-64.7500,-7.0700,-111.1600
225054,-0.8662,0.1103,0.0215,-108.2200,-19.6700,-72.7300
225097,-1.0824,0.0659,0.1464,-111.0900,-10.7800,-31.6400
225140,-0.9501,0.0190,0.0737,-140.0000,-20.7200,1.7500
225183,-1.0009,-0.0215,-0.0083,-86.6600,-12.4600,-35.5600
225227,-0.9789,-0.0020,-0.0171,-63.7700,-17.4300,-53.4100
225271,-1.0658,0.0356,0.0024,-81.2000,-24.5000,-28.1400
225314,-1.0004,0.0356,-0.0844,-81.3400,-23.9400,-27.0900
225358,-1.0316,0.0937,-0.0063,-64.8200,4.6900,-9.9400
225401,-1.0243,0.0830,0.0683,-76.5100,-11.4800,29.8900
225445,-0.9106,0.1420,-0.0566,-20.3700,-37.9400,3.2900
225488,-0.9453,0.1947,-0.1171,4.9000,-32.6900,13.4400
225532,-0.9335,0.2040,-0.1093,7.5600,-20.4400,54.6700
225575,-1.1283,0.1923,-0.0630,56.4200,-10.5700,65.8700
225619,-1.0575,0.1928,-0.0966,15.1900,-24.8500,107.3100
225663,-0.9858,0.1308,-0.0864,7.7000,-31.6400,126.4200
225706,-0.9950,0.0942,-0.0791,-8.2600,-23.0300,117.8100
225749,-0.8364,0.0722,-0.1308,-39.0600,-2.1000,78.4000
225791,-1.1136,0.0869,-0.0551,-69.0900,38.5700,-26.5300
225835,-1.0106,0.1620,-0.0166,-112.2800,84.9800,-74.4100
225879,-1.0390,0.1679,0.0927,-116.6900,127.7500,-53.5500
225923,-1.2605,0.2294,0.1083,-116.4100,90.1600,-52.9200
225967,-1.0082,0.2494,-0.0229,-123.1300,52.5000,-60.3400
226011,-1.0282,0.2674,-0.0249,-106.0500,42.9100,-34.0900
226055,-1.0419,0.2455,-0.0556,-61.6000,33.9500,16.3100
226099,-1.0599,0.2230,-0.0737,-27.4400,34.6500,37.7300
226143,-0.9662,0.1947,-0.1366,-30.1000,26.7400,40.2500
226187,-0.9658,0.1718,-0.1274,-28.3500,45.1500,-0.2100
226230,-0.9077,0.1723,-0.1098,-30.1700,68.3900,-34.8600
226274,-0.9384,0.1996,-0.0156,-31.6400,95.5500,-60.9000
226317,-0.8857,0.2162,-0.0254,-26.6700,88.2000,-78.6800
226360,-0.9135,0.2298,-0.0078,-11.4800,69.5100,-84.5600
226404,-0.8115,0.2372,-0.0381,3.0800,24.7100,-67.3400
226447,-0.7169,0.1947,-0.0610,11.4800,-22.4700,-24.1500
226491,-0.7496,0.1366,-0.0956,15.5400,-72.0300,13.8600
226535,-0.8779,0.0791,-0.1225,7.4900,-127.6100,29.5400
226578,-1.2639,0.0434,-0.0839,-28.2800,-163.8000,39.8300
226621,-1.3381,0.0498,-0.1527,-41.3000,-175.9100,12.8800
226664,-1.3239,0.1142,-0.2098,-61.8100,-177.3100,-32.3400
226708,-1.0985,0.1357,-0.2333,-91.9100,-130.4100,-6.7900
226750,-1.0765,0.0771,-0.1225,-54.6000,-73.8500,33.5300
226793,-1.0770,0.0761,-0.0747,16.9400,-1.3300,46.5500
226836,-1.2141,0.0210,-0.0098,-62.0200,9.5200,71.5400
226879,-1.1536,0.0932,-0.0268,-24.0100,42.3500,67.2700
226922,-1.0775,0.0888,0.0127,23.2400,101.1500,80.0800
226966,-1.0580,0.0893,0.0298,29.1900,146.4400,53.4100
227009,-1.0307,0.1152,0.0644,39.7600,178.9900,-10.0100
227052,-1.0243,0.1557,0.1093,15.4700,177.8700,-25.1300
227095,-0.9238,0.1791,0.0508,-4.6900,139.0200,-6.3000
227139,-0.8311,0.1825,-0.0278,13.4400,101.7800,-3.9900
227182,-0.7798,0.1737,-0.0805,31.1500,66.3600,-7.7700
227226,-0.8003,0.1484,-0.1157,31.6400,25.2700,4.6200
227269,-0.8301,0.0981,-0.1542,12.8100,-2.3800,3.5000
227312,-0.8320,0.0839,-0.2001,-18.3400,-40.2500,-14.0000
227356,-0.9789,0.0966,-0.1967,-53.3400,-66.9900,-37.5200
227399,-1.1312,0.1220,-0.2011,-102.9000,-73.2900,-57.0500
227443,-1.0643,0.1493,-0.2474,-137.4800,-67.2000,-48.2300
227487,-0.9575,0.1366,-0.2216,-121.7300,-45.0100,-47.2500
227531,-0.9804,0.1674,-0.1630,-86.5200,-33.6000,-68.0400
227574,-1.0643,0.1991,-0.1132,-60.0600,-49.0700,-71.4000
227617,-0.9648,0.2098,-0.1088,-29.7500,-53.0600,-80.2900
227660,-1.0765,0.2259,-0.0483,0.2800,-59.9200,-56.1400
227703,-1.0111,0.2142,-0.0683,25.6900,-56.5600,-11.4800
227746,-0.9204,0.1820,-0.0478,39.4800,-34.2300,38.0100
227789,-0.9526,0.1396,0.0171,47.3200,3.1500,67.2000
227832,-0.9506,0.1220,0.0517,22.1200,7.6300,83.5100
227875,-0.9355,0.1093,0.0478,-7.5600,-9.5200,86.4500
227917,-0.8672,0.1264,-0.0439,-43.1200,-37.3800,68.0400
227961,-0.8906,0.1562,-0.1127,-11.7600,-43.4700,15.6800
228004,-0.9394,0.2289,-0.1054,-34.1600,-63.6300,-2.9400
228047,-0.9984,0.2904,-0.0825,-138.8100,-59.9900,17.0800
228090,-1.0365,0.4211,-0.0307,-48.7200,-43.8900,-60.1300
228134,-1.1546,0.2601,-0.1210,-87.4300,-3.7800,-74.5500
228178,-1.3127,0.3035,-0.0473,-72.0300,-3.3600,-104.7200
228221,-1.2781,0.3123,-0.0776,-40.8800,32.2700,-61.2500
228265,-1.1151,0.2235,0.0063,-36.9600,56.0000,14.0700
228309,-0.9965,0.1381,0.0029,1.6800,41.6500,27.4400
228352,-1.0141,0.0688,-0.0078,34.5100,40.8100,63.4200
228396,-1.0180,0.0049,-0.0200,45.0800,38.5700,75.3200
228440,-1.0834,-0.0224,-0.0059,95.4100,24.1500,38.6400
228483,-1.1932,-0.0112,-0.0161,99.8200,8.1900,5.7400
228526,-1.1082,0.0117,-0.0952,116.5500,12.6700,-10.4300
228570,-1.0204,0.0678,-0.0761,120.6100,60.8300,-12.4600
228614,-0.9770,0.1093,-0.0239,60.5500,100.1700,5.1800
228658,-0.8955,0.1103,0.0112,-13.2300,113.8900,35.0700
228702,-0.8560,0.1274,0.0659,-38.5700,98.7000,41.0900
228746,-0.7486,0.1147,0.0473,-60.4100,38.0100,57.7500
228789,-0.7398,0.0898,0.0127,-18.6900,-12.2500,27.7900
228833,-0.7989,0.0952,-0.0605,22.5400,-38.9200,2.5200
228876,-0.8340,0.1020,-0.0932,49.8400,-44.1000,-18.4800
228919,-0.8818,0.1000,-0.1064,13.5100,-49.6300,-23.1700
228963,-0.9604,0.1005,-0.1059,-31.8500,-55.0200,-26.5300
229007,-1.1326,0.1264,-0.0961,-74.4100,-62.0200,-31.7800
229051,-1.2532,0.1493,-0.0937,-125.7900,-53.5500,-31.0800
229094,-1.0951,0.1542,-0.1581,-133.3500,-22.8200,-5.3200
229138,-0.9770,0.1523,-0.1176,-83.2300,7.4200,2.8000
229181,-0.9399,0.1698,-0.0810,-59.5000,2.5900,-9.1000
229224,-0.9862,0.2035,-0.0644,-66.3600,-27.0900,-46.9000
229268,-1.0907,0.2152,-0.0405,-81.9000,-32.4800,-68.9500
229312,-1.0268,0.2889,-0.0742,-11.2700,-44.3800,-57.1900
229356,-0.9296,0.2874,-0.0766,-1.6100,-45.6400,-12.3900
229400,-0.9374,0.2113,-0.0727,10.7800,-45.3600,-0.2100
229444,-0.9745,0.1859,-0.0581,17.8500,-40.8800,8.7500
229488,-0.9658,0.1649,-0.0615,17.9900,-36.3300,17.8500
229532,-0.9091,0.2616,-0.1469,23.2400,-27.0900,29.4000
229576,-0.9804,0.0854,0.0005,10.0100,-42.7700,19.6000
229620,-1.0165,0.1303,-0.1484,42.9100,-28.5600,-3.5000
229664,-1.0399,0.1191,-0.1757,15.6800,16.8000,-9.1700
229707,-1.0282,0.1069,-0.1132,-9.4500,36.2600,-7.7000
229750,-1.0072,0.1005,-0.0859,-21.4200,15.8900,-20.7200
229792,-1.0658,0.1498,-0.0834,-41.5100,8.6100,-39.7600
229835,-1.0926,0.1645,-0.0332,-57.8900,6.9300,-28.1400
229879,-1.1292,0.1703,0.0303,-30.8000,15.3300,4.6900
229922,-1.1058,0.1259,-0.0229,11.6900,6.2300,-2.3800
229965,-1.1156,0.1386,-0.0332,48.6500,-1.8900,-31.0800
230008,-1.0214,0.1244,-0.0010,70.2100,17.8500,13.8600
230052,-1.0546,0.1005,0.0337,89.3200,33.2500,45.2200
230095,-1.1053,0.0874,0.0625,69.3000,27.8600,52.6400
230139,-1.0731,0.0547,0.0464,51.4500,20.9300,71.3300
230183,-0.9975,0.0386,0.0054,62.2300,30.2400,60.0600
230227,-0.9267,0.0366,-0.0093,74.4800,63.6300,26.2500
230270,-0.8838,0.0410,0.0059,78.1200,94.9900,-6.1600
230313,-0.8682,0.0693,0.0464,57.8200,99.1900,-29.2600
230357,-0.8335,0.1005,0.0298,27.5800,70.7000,-43.6100
230401,-0.8350,0.1147,-0.0015,11.1300,40.1100,-24.7800
230445,-0.8125,0.0981,-0.0307,14.2800,9.8700,-4.2000
230488,-0.8764,0.0630,-0.0444,17.7800,-18.1300,6.7900
230531,-0.9184,0.0473,-0.0810,8.0500,-46.4800,11.1300
230574,-1.0311,0.0512,-0.1093,-2.3100,-70.0700,-2.1000
230617,-1.2571,0.0864,-0.0874,-27.7200,-79.3100,-12.4600
230660,-1.1082,0.1132,-0.1688,-79.9400,-82.9500,29.5400
230704,-0.9477,0.0937,-0.1776,-99.4000,-67.8300,61.1800
230748,-0.9204,0.1039,-0.1513,-110.3200,-69.1600,42.7000
230791,-1.0716,0.1527,-0.0795,-157.8500,-67.5500,-9.7300
230834,-1.0819,0.1957,-0.0239,-190.0500,-46.2000,-44.4500
230877,-0.9789,0.4143,0.0610,5.6700,-19.8800,-92.4000
230920,-0.9018,0.3113,0.0576,-68.5300,-15.5400,-22.8200
230963,-0.9292,0.2830,0.0127,-31.0800,-48.5800,-9.4500
231006,-1.0102,0.2967,-0.0903,20.0900,-25.2000,-4.2000
231049,-0.9960,0.2455,-0.1078,6.6500,4.5500,13.5100
231092,-0.9653,0.1845,-0.0410,2.2400,14.2100,18.4100
231135,-0.9399,0.1542,0.0029,-7.9800,14.9800,27.3000
231178,-0.9160,0.1557,0.0034,1.6800,6.6500,18.4800
231221,-0.9272,0.1342,0.0249,-39.6900,-5.1100,21.2800
231264,-0.9628,0.1840,-0.0107,-40.9500,-20.0200,-15.2600
231308,-1.0102,0.2250,-0.0395,-95.2700,-22.1200,-18.9000
231352,-1.1102,0.2372,-0.0054,-88.5500,-6.2300,-47.4600
231395,-1.2639,0.2557,0.0503,-6.7200,17.0100,-68.8100
231439,-1.1092,0.2718,0.0346,22.9600,19.1800,-78.6800
231483,-1.0838,0.2826,0.0483,18.2700,0.7700,-52.0800
231527,-1.1473,0.2162,0.0615,18.8300,5.6700,50.4700
231571,-1.1517,0.1425,0.0600,59.2200,28.5600,52.3600
231615,-1.1175,0.1225,0.0878,90.2300,61.0400,63.0000
231659,-1.0765,0.0956,0.0688,104.6500,62.0900,99.1200
231703,-1.0111,0.0737,0.0537,133.2100,55.7900,108.3600
231747,-0.9765,0.0649,0.0737,134.6100,77.2800,106.2600
231791,-0.9179,0.0556,0.0620,104.8600,70.0700,89.6700
231834,-0.8228,0.0517,0.0390,78.4000,55.5100,58.0300
231878,-0.7706,0.0532,0.0249,42.5600,29.8900,26.4600
231922,-0.7642,0.0459,-0.0132,23.3800,8.8900,-7.8400
231965,-0.7974,0.0810,-0.0415,17.7800,0.4900,-45.2200
232008,-0.8642,0.1064,-0.0405,-15.3300,-12.9500,-64.0500
232052,-0.8974,0.1440,-0.0444,-42.1400,-32.2700,-69.7900
232096,-1.0277,0.1601,-0.0273,-80.4300,-55.4400,-53.8300
232139,-1.1814,0.1537,-0.0293,-102.6900,-79.8000,-22.1900
232183,-1.1600,0.1659,-0.0649,-123.3400,-89.3200,5.7400
232226,-1.0565,0.1747,-0.0908,-138.8100,-71.7500,-8.4700
232270,-0.9667,0.2040,-0.1059,-156.4500,-80.0800,-43.2600
232314,-1.1741,0.2391,0.0327,-144.7600,-58.2400,-102.4800
232358,-1.0067,0.2718,0.0717,-137.1300,-25.3400,-88.0600
232402,-0.9618,0.2826,0.0761,-63.5600,-3.5700,-38.9900
232445,-0.8252,0.2869,0.0483,1.6100,-28.2100,-7.0700
232488,-0.9072,0.3109,0.0498,5.1800,-38.7100,66.7800
232531,-0.9682,0.1903,0.0874,-99.2600,-55.2300,128.2400
232575,-0.9823,0.2298,-0.0176,0.1400,-12.8100,75.3200
232618,-0.9765,0.2137,0.0234,49.0700,37.3100,31.8500
232662,-0.9189,0.1942,0.0791,35.3500,38.8500,-1.8200
232705,-0.9052,0.1674,0.1015,0.0000,29.9600,-10.5000
232748,-0.9731,0.1806,0.0966,-6.3700,25.4100,-45.1500
232791,-1.0531,0.1962,0.1327,0.8400,21.9100,-84.4900
232834,-1.1151,0.2245,0.1230,3.7800,8.1900,-96.6000
232877,-1.0741,0.2372,0.0830,35.7000,0.7000,-87.2200
232921,-1.0399,0.2006,0.0322,41.8600,-13.9300,-15.4000
232965,-1.1429,0.1196,0.0517,77.2100,-10.9200,5.3200
233008,-1.1356,0.1298,0.0512,169.1900,-2.8700,-43.5400
233052,-1.0512,0.1537,0.0742,120.8200,-20.4400,5.4600
233095,-1.0795,0.0864,0.0649,97.5800,-31.6400,51.5200
233138,-1.1590,0.0264,0.0337,77.4200,-25.1300,60.2700
233181,-1.0702,0.0132,-0.0249,69.2300,-3.5700,72.0300
233224,-1.0268,-0.0005,0.0459,94.3600,43.4700,70.2800
233267,-0.9472,-0.0166,0.0927,87.0800,77.9800,64.0500
233310,-0.8750,-0.0381,0.1318,74.8300,98.6300,37.3100
233353,-0.8194,-0.0381,0.1806,51.8000,100.8000,7.4900
233396,-0.8032,-0.0268,0.2128,36.1900,66.8500,-22.1200
233440,-0.7530,-0.0039,0.1615,16.3800,0.3500,-24.5000
233483,-0.8486,0.0039,0.1537,-3.7800,-45.5700,-21.4900
233526,-1.0258,0.0273,0.0639,4.9000,-96.7400,-24.2200
233569,-1.1434,0.0249,-0.0268,-24.2200,-78.8200,11.8300
233613,-1.3054,0.0571,-0.0205,-14.6300,-43.1200,-2.4500
233656,-1.0536,0.1298,-0.0776,19.6700,3.2900,1.4700
233699,-0.9160,0.1103,0.0181,-22.8200,9.5900,38.2200
233742,-0.9594,0.1054,0.0273,-34.1600,-21.5600,12.4600
233786,-1.0024,0.1635,0.0449,-64.3300,-14.9100,22.6100
233830,-0.9521,0.1752,0.0010,-58.0300,-27.5100,14.0700
233874,-0.8564,0.1981,-0.0561,-58.1000,-62.9300,0.4200
233916,-1.0150,0.2586,-0.0229,-69.4400,-39.9700,-33.9500
233960,-1.0463,0.2728,0.0371,-108.2900,-11.9700,-22.1900
234004,-0.8921,0.3416,0.0229,4.7600,15.7500,-46.1300
234047,-0.9477,0.2669,0.0771,9.2400,3.4300,-24.4300
234090,-0.9194,0.2050,0.0151,7.4200,-5.2500,-37.3100
234133,-1.0092,0.2357,0.0532,-8.4700,-10.0100,-37.0300
234176,-1.0043,0.2830,0.0161,2.3800,-7.8400,-16.6600
234219,-1.0663,0.2245,0.0571,9.8700,-7.2100,9.6600
234262,-1.0570,0.1874,0.0395,16.0300,-13.5800,8.6100
234305,-1.1019,0.1357,0.0488,25.2000,-5.6700,-3.3600
234348,-1.1326,0.1186,0.0468,15.8900,-6.5100,-0.2800
234391,-1.0902,0.1093,0.0351,12.1100,-8.8200,-11.1300
234434,-1.0668,0.1479,0.0654,26.7400,-9.3800,-41.7900
234477,-0.9833,0.2191,0.0390,19.0400,-16.0300,-23.0300
234521,-0.9145,0.1972,0.0464,36.4700,-12.7400,15.8200
234564,-1.1190,0.1264,0.1332,51.8000,-13.9300,45.3600
234608,-1.0716,0.0590,0.1854,38.5700,-3.2200,64.7500
234651,-1.0443,0.0049,0.1000,5.1100,-24.7800,39.1300
234694,-1.0360,0.0415,0.0098,37.1000,-11.2000,-3.6400
234737,-1.0350,0.0742,-0.0356,37.8700,25.7600,-18.6900
234781,-0.9955,0.0903,0.0073,33.3900,76.0900,-13.2300
234825,-0.9004,0.0625,0.0825,31.7100,95.9700,9.1000
234869,-0.8984,0.0317,0.1444,29.1900,86.8700,22.1200
234913,-0.8696,0.0049,0.1503,25.9000,60.5500,13.7200
234956,-0.8760,-0.0039,0.1357,16.0300,27.5800,5.3200
234999,-1.0116,-0.0024,0.1342,11.2700,4.9000,5.8800
235041,-1.0892,0.0000,0.1391,-1.6100,-11.3400,28.2100
235085,-1.1214,-0.0005,0.1513,-28.4200,-36.1200,42.9800
235128,-0.9662,0.0488,0.0303,-19.8800,-79.1000,10.0100
235171,-0.9189,0.1352,-0.0752,-1.1200,-99.8200,-15.5400
235214,-0.9082,0.1654,-0.1274,-22.0500,-61.5300,-15.5400
235257,-1.0468,0.1815,-0.0610,-3.7100,-5.2500,-42.9100
235300,-1.0482,0.2162,0.0342,8.6100,35.7000,-38.8500
235343,-0.9448,0.2015,0.1020,15.1200,32.5500,2.0300
235386,-0.8389,0.1264,0.0834,38.4300,-4.8300,19.2500
235429,-0.8730,0.0971,0.0859,26.8800,-27.7200,30.3800
235473,-0.8926,0.0859,0.0874,20.3700,-26.6000,24.0100
235516,-0.8769,0.1093,0.0922,3.8500,-43.9600,23.6600
235559,-0.9272,0.1610,0.0693,-5.1100,-70.7000,20.3000
235602,-0.9457,0.1972,0.0273,-19.8800,-72.3800,6.5800
235645,-0.9335,0.2425,0.0107,-55.7900,-68.6000,-15.7500
235689,-1.0165,0.2557,0.0434,-102.9700,-36.0500,-49.4900
235733,-1.1936,0.2782,0.1610,-153.6500,-29.4700,-52.0800
235777,-1.0609,0.3016,0.0844,-82.2500,-2.4500,-96.2500
235820,-1.1888,0.3582,0.1396,-30.4500,23.7300,-79.7300
235864,-1.2215,0.2855,0.2328,-22.5400,31.5700,3.2200
235907,-1.0482,0.1903,0.1610,8.5400,-8.6800,-36.6100
235950,-1.2278,0.2796,0.0834,35.9100,-34.3700,-70.5600
235994,-1.1258,0.2030,0.0366,4.5500,1.3300,41.8600
236037,-1.1097,0.0742,0.0595,14.2800,13.7900,87.4300
236080,-1.1317,0.0254,0.0747,50.3300,46.6900,69.7900
236123,-1.1214,0.0073,0.0903,65.3100,59.7800,55.3000
236166,-1.0546,0.0137,0.0810,64.4000,69.6500,63.4900
236208,-0.9945,-0.0283,0.1249,59.7100,93.1700,77.4200
236252,-0.9155,-0.0517,0.1596,43.8900,99.9600,76.1600
236295,-0.8350,-0.0644,0.1981,58.5200,100.4500,39.5500
236339,-0.8882,-0.0742,0.2455,61.8800,68.7400,21.5600
236383,-0.7457,-0.0093,0.2172,7.2800,9.5900,57.7500
236426,-0.7686,-0.0356,0.1440,17.4300,-28.6300,22.8200
236469,-1.0233,-0.0630,0.1488,15.5400,-53.4100,-16.8700
236512,-0.9618,0.0410,0.0678,5.1100,-59.3600,-30.1700
236556,-1.2512,0.0503,0.1332,0.5600,-58.3100,-51.0300
236599,-1.0477,0.1142,0.0376,-17.3600,-89.3900,-56.7000
236642,-1.0067,0.1679,-0.0630,-29.8200,-139.0200,-70.4200
236686,-1.2054,0.1952,-0.1308,-23.0300,-126.9800,-124.1800
236730,-1.3430,0.2611,-0.1508,-22.8200,-38.2900,-123.4800
236774,-1.1478,0.2591,-0.0800,42.1400,85.4700,-63.0700
236818,-0.8896,0.1581,0.0283,44.1000,131.5300,30.0300
236862,-0.8628,0.0508,0.1401,52.3600,121.8000,66.4300
236906,-0.8028,0.0107,0.2113,29.1200,73.5700,81.5500
236950,-0.7710,-0.0044,0.2137,10.5000,-8.0500,63.0700
236993,-0.8316,0.0376,0.1220,0.4200,-87.9200,37.3800
237036,-0.9511,0.0961,0.0327,-2.5200,-138.9500,24.5000
237080,-1.0404,0.1459,-0.0381,-22.7500,-166.9500,9.7300
237124,-1.1468,0.1981,-0.0405,-56.0700,-150.2900,0.7700
237167,-1.1829,0.1571,-0.0649,-39.9000,-93.8700,-35.1400
237211,-1.2229,0.1342,0.0054,-20.4400,-47.2500,-63.7000
237255,-1.1956,0.2401,0.0142,8.1900,29.3300,-38.4300
237299,-1.1522,0.1488,0.1542,-9.5200,76.0900,21.5600
237343,-1.0599,0.0620,0.1366,8.0500,32.9700,-22.8900
237387,-1.1346,0.1093,0.0956,-7.7000,18.4100,-39.9000
237431,-1.1000,0.0971,0.1054,-47.2500,31.5000,29.4700
237475,-1.0516,0.0561,0.1010,-16.0300,44.7300,40.6000
237519,-1.0014,0.0395,0.1176,-16.3100,46.0600,45.7800
237563,-0.9643,0.0332,0.1000,2.5200,46.2000,30.0300
237606,-0.9296,0.0361,0.1069,5.5300,55.0900,28.9800
237649,-0.8926,0.0176,0.1220,1.6100,58.5200,45.2900
237693,-0.8574,-0.0107,0.1396,10.3600,53.4100,49.5600
237737,-0.8603,-0.0410,0.1444,16.1000,38.2200,31.5000
237781,-0.8750,-0.0342,0.1503,19.6700,25.6200,5.3200
237825,-0.9126,-0.0005,0.1693,12.6700,12.1100,-4.4800
237869,-0.9975,-0.0054,0.1728,23.5900,-13.7900,-11.0600
237912,-1.0424,0.0098,0.1410,-4.6200,-42.4200,5.1100
237955,-1.1317,0.0185,0.1454,-14.1400,-58.8700,6.8600
237999,-1.1614,0.0551,0.1064,-14.8400,-77.9800,-5.8800
238042,-0.9360,0.1166,-0.0386,-8.8900,-103.7400,-23.7300
238086,-0.9843,0.1537,-0.0752,-19.2500,-92.8200,-48.7200
238130,-1.1570,0.1903,-0.0381,-4.0600,3.6400,-70.5600
238173,-1.0116,0.1732,0.0737,4.3400,73.7800,-31.0800
238216,-0.8847,0.1269,0.1503,23.8700,59.0800,18.6900
238260,-0.8164,0.0444,0.1601,33.8100,34.0900,47.9500
238304,-0.8618,-0.0254,0.1869,19.1800,8.1900,51.3100
238348,-0.8682,-0.0337,0.1723,8.0500,-40.3200,17.3600
238392,-0.9008,0.0415,0.0947,-1.6100,-77.1400,-19.2500
238436,-0.9697,0.1196,0.0376,-24.9200,-100.3800,-40.2500
238480,-1.0102,0.2045,0.0102,-70.0000,-101.7800,-39.3400
238524,-1.0619,0.2425,-0.0088,-22.5400,-67.2700,-59.7100
238568,-1.1370,0.2518,0.0151,-5.8800,-27.6500,-67.9700
238612,-1.2220,0.2601,0.0503,10.7100,-12.3200,-65.0300
238655,-1.2922,0.2518,0.0659,18.9000,4.9000,-21.4200
238699,-1.2171,0.1249,0.1425,-16.3800,5.7400,49.4900
238743,-1.2156,0.0644,0.0195,5.4600,-48.1600,-19.3900
238787,-1.3776,0.1649,-0.0595,-14.0700,-27.7200,-12.3200
238831,-1.3274,0.1010,-0.0205,-49.8400,89.6700,73.7100
238875,-1.2400,0.0327,0.1078,-13.0900,149.0300,88.1300
238917,-1.1390,-0.0034,0.2064,-5.8800,173.3900,108.2200
238961,-1.0795,-0.0488,0.2645,16.8700,155.4700,103.0400
239005,-0.9984,-0.0566,0.2713,52.5700,124.5300,86.5200
239049,-0.8584,-0.0166,0.2718,77.4200,99.2600,71.3300
239092,-0.7774,-0.0444,0.2123,79.3800,60.4100,51.5200
239135,-0.7247,0.0044,0.1830,84.2800,23.0300,49.9800
239179,-0.7066,-0.0473,0.1176,45.7800,-14.4900,52.4300
239223,-0.7676,-0.0761,0.0815,38.7800,-39.9700,10.4300
239267,-0.8491,-0.0620,0.0581,23.5200,-53.6200,-38.7100
239311,-0.9184,-0.0224,0.0410,-6.5800,-61.0400,-62.5100
239354,-1.1326,0.0137,0.0898,-12.8100,-60.2000,-101.4300
239398,-1.2859,0.0556,0.1171,-11.2700,-87.7100,-113.2600
239442,-1.0721,0.1405,0.0049,-2.1000,-123.6900,-71.6100
239486,-1.1000,0.1357,-0.0117,-6.2300,-141.9600,-17.6400
239530,-1.2751,0.0898,-0.0576,-12.1100,-155.9600,-27.4400
239574,-1.1873,0.1186,-0.1440,43.6800,-85.4700,-54.5300
239617,-1.0868,0.1210,-0.0956,57.0500,-8.1200,-29.6800
239660,-0.9550,0.0742,-0.0181,59.6400,14.4900,-7.5600
239703,-0.9550,0.0342,0.0537,45.6400,7.0700,12.2500
239746,-0.9623,0.0010,0.0869,42.0700,-8.4000,12.8100
239789,-0.9643,0.0239,0.0781,40.5300,-46.8300,10.0800
239833,-1.0063,0.0815,0.0195,29.4000,-63.0700,29.2600
239876,-1.0697,0.0703,-0.0146,8.2600,-59.0800,52.5700
239919,-1.0360,0.0405,-0.0351,20.9300,-41.5100,29.3300
239963,-1.0702,0.0112,-0.0137,10.9900,-19.5300,-2.8000
240006,-1.1204,0.0259,-0.0117,-11.3400,0.5600,-42.9800
240049,-1.2459,0.0825,0.0224,-22.8200,20.5100,-90.7200
240093,-1.3625,0.1035,0.1366,-41.3000,61.2500,-79.5900
240137,-1.1580,0.1049,0.1176,-46.6200,21.2100,-34.7200
240181,-1.2063,0.0512,0.0537,-44.6600,10.0800,-9.6600
240224,-1.1951,-0.0151,0.0878,-7.0000,61.6700,47.4600
240268,-1.1766,-0.1000,0.0752,68.6700,92.8200,52.9900
240312,-1.1102,-0.0825,0.1376,157.1500,146.5100,23.2400
240356,-1.1326,-0.1435,0.2094,101.1500,145.3200,42.8400
240400,-1.1283,-0.0351,0.3016,58.3100,127.3300,31.8500
240444,-0.9174,-0.1108,0.1864,28.3500,99.5400,25.8300
240488,-0.8237,-0.1098,0.1586,14.0700,83.3700,17.1500
240532,-0.8130,-0.0766,0.1488,9.3100,52.8500,1.2600
240575,-0.7769,-0.0195,0.0908,16.1700,38.8500,-14.7700
240619,-0.7032,0.0346,0.0908,16.3800,29.8200,-33.7400
240663,-0.7457,0.0503,0.1196,11.2000,-9.8000,-35.3500
240706,-0.7837,0.0478,0.1303,17.6400,-44.8700,-14.0700
240750,-0.8389,0.0034,0.1498,10.2200,-77.0000,22.6800
240793,-1.0277,-0.0361,0.1352,11.2000,-125.5800,24.9900
240837,-1.2083,-0.0176,0.0956,1.0500,-168.8400,25.2700
240880,-1.3381,-0.0503,0.0322,-1.6800,-172.6200,26.3200
240923,-1.1780,0.0068,-0.0215,4.2000,-164.6400,39.4800
240966,-1.2966,0.0264,-0.0278,2.7300,-213.8500,46.1300
241010,-1.3459,0.0049,-0.0947,-82.4600,-228.0600,53.9700
241054,-1.3371,0.0161,-0.1635,57.7500,-118.0200,7.0000
241097,-1.1936,0.0215,-0.1088,32.6200,-14.7700,33.1800
241141,-1.1195,-0.0117,0.0102,-15.3300,29.6800,36.7500
241185,-1.1014,-0.0098,0.0683,-40.6000,45.3600,-7.2100
241228,-1.1195,0.0488,0.1254,-54.2500,54.9500,-44.8700
241272,-1.1034,0.1210,0.1337,-83.2300,56.1400,-54.6000
241316,-1.1292,0.1713,0.1298,-91.6300,51.7300,-49.9800
241360,-1.0277,0.2025,0.0722,-67.9000,71.6800,-25.2700
241404,-0.9555,0.1747,0.1484,-62.4400,107.8700,37.9400
241448,-0.9911,0.0986,0.2430,-27.4400,126.3500,73.0800
241492,-0.9511,0.0527,0.2728,-5.6700,109.4100,76.9300
241535,-0.9531,0.0117,0.2938,-12.7400,82.8800,76.7200
241579,-0.9243,-0.0117,0.2782,-6.6500,39.3400,62.2300
241622,-0.8799,0.0010,0.2103,13.3000,-0.8400,35.0700
241665,-0.9321,-0.0093,0.1659,1.7500,-38.5000,21.6300
241708,-0.8852,0.0093,0.0844,-6.3000,-82.5300,-14.6300
241751,-1.1087,0.0386,0.0454,2.0300,-133.7700,-69.3700
241795,-1.2649,0.0922,-0.0132,-30.8000,-141.6800,-54.3900
241839,-1.2093,0.0888,-0.1074,-41.6500,-99.0500,-35.9100
241883,-1.2005,0.0913,-0.0966,-28.0700,-28.2800,-26.9500
241927,-1.2288,0.0508,-0.0376,-35.0700,52.1500,-20.8600
241970,-1.1405,0.0664,0.0376,-11.4100,86.5900,-30.2400
242014,-1.0443,0.0966,0.0986,-22.7500,109.2000,11.9000
242058,-0.9872,0.0844,0.1688,-19.0400,123.7600,47.8800
242102,-0.9467,0.0791,0.2362,-7.9100,108.5700,71.9600
242146,-0.8481,0.0854,0.2621,5.4600,68.2500,80.7100
242190,-0.7803,0.0786,0.2572,4.8300,21.4900,81.5500
242234,-0.7447,0.0669,0.2274,12.3900,-16.8000,61.6700
242278,-0.7623,0.0581,0.1864,3.4300,-35.1400,46.9700
242322,-0.8408,0.0273,0.1815,-9.2400,-38.5000,14.4200
242366,-0.9238,0.0283,0.2011,-28.8400,-45.8500,-23.0300
242410,-1.0878,0.0517,0.1986,-38.2900,-63.4900,-79.3100
242453,-1.2503,0.1235,0.1728,-40.9500,-97.4400,-113.2600
242497,-1.2595,0.2069,0.0996,-29.5400,-125.2300,-93.3800
242541,-1.1517,0.2318,-0.0151,-54.9500,-133.2800,-39.5500
242584,-1.1936,0.2225,-0.0669,-91.7000,-128.4500,-20.3700
242628,-1.2137,0.2279,-0.1327,20.2300,-44.6600,-70.3500
242672,-1.0804,0.2142,-0.0376,27.6500,86.5200,-6.4400
242716,-1.0536,0.1049,0.1303,44.4500,153.9300,41.5100
242760,-0.9106,0.0449,0.2147,56.0000,158.7600,77.8400
242804,-0.8833,-0.0312,0.2884,33.3200,113.3300,79.1700
242848,-0.8218,-0.0229,0.3152,29.6100,46.6200,51.5900
242892,-0.7618,0.0142,0.2757,7.3500,-27.2300,41.0200
242936,-0.8589,0.0273,0.2308,-11.8300,-84.0000,33.8100
242980,-0.9170,0.0805,0.1640,-17.3600,-119.7000,11.5500
243024,-0.9692,0.1171,0.1064,-25.1300,-131.3900,-16.7300
243068,-1.1131,0.1425,0.0917,-31.2200,-129.5700,-51.7300
243112,-1.2102,0.1806,0.0756,-57.6800,-118.4400,-83.2300
243156,-1.3937,0.1620,0.0498,-50.7500,-98.7700,-129.3600
243200,-1.3361,0.2533,0.0039,-44.3100,-36.1200,-91.5600
243243,-1.2654,0.2167,0.0346,-22.1900,42.2100,-62.1600
243287,-1.1200,0.1586,0.1035,1.8900,73.9900,-2.9400
243330,-1.0546,0.0459,0.1552,5.3200,89.6000,81.0600
243374,-1.1136,-0.0234,0.2298,74.4100,88.7600,86.1000
243417,-1.1429,-0.0473,0.2684,28.0000,58.0300,103.9500
243461,-1.1497,-0.0878,0.2152,15.4000,16.0300,104.0900
243505,-1.0824,-0.0639,0.0893,36.0500,9.5900,74.6200
243548,-0.9931,-0.0376,0.0361,26.5300,64.8200,39.6200
243591,-0.9301,-0.0605,0.1196,9.1700,135.7300,6.1600
243635,-0.8872,-0.0215,0.2259,-2.8000,166.4600,-29.6100
243679,-0.8316,-0.0029,0.2860,-17.8500,159.5300,-47.3900
243723,-0.7579,0.0273,0.3040,-19.1800,103.2500,-56.2800
243767,-0.7296,0.0512,0.2806,1.8900,31.5000,-56.2100
243811,-0.8418,0.0566,0.2479,14.8400,-52.5000,-31.5700
243855,-0.9326,0.0342,0.1835,25.1300,-92.6800,8.2600
243898,-1.1336,-0.0098,0.1732,44.2400,-119.3500,18.4100
243942,-1.1317,-0.0142,0.0893,54.6700,-151.1300,22.6100
243986,-1.0868,-0.0063,0.0220,48.4400,-153.6500,39.6200
244029,-1.1370,-0.0322,-0.0181,23.1700,-147.9800,19.9500
244072,-1.1858,0.0468,-0.0298,30.3800,-115.2200,-39.8300
244116,-1.1063,0.0913,-0.0439,16.6600,-24.9200,-36.4700
244159,-1.0102,0.0996,0.0800,12.7400,33.5300,-16.2400
244203,-0.8769,0.0712,0.1562,8.1900,49.3500,-1.1200
244246,-0.8496,0.0595,0.2181,-7.6300,26.5300,2.5900
244289,-0.8901,0.0615,0.2523,-7.6300,-14.1400,-18.1300
244333,-0.9550,0.1191,0.2255,11.7600,-62.7900,-38.9200
244376,-1.0336,0.1591,0.1396,26.5300,-103.6000,-23.4500
244420,-1.0951,0.1498,0.0527,29.8200,-120.2600,9.6600
244464,-1.1151,0.1225,-0.0244,34.9300,-96.5300,20.2300
244508,-1.1185,0.0898,-0.0249,6.3000,-26.2500,32.2700
244551,-1.1507,0.0390,0.0820,-8.6100,24.5000,10.8500
244594,-1.1253,0.0595,0.1508,-22.7500,42.9800,-17.2200
244638,-1.0863,0.0854,0.1566,-23.5900,52.5700,-28.9100
244682,-1.1278,0.0761,0.2103,-28.6300,61.7400,-29.7500
244726,-1.1039,0.0610,0.1747,-17.2200,25.3400,-40.5300
244770,-1.1634,0.0952,0.1166,-3.7800,29.1900,-30.8000
244814,-1.0975,0.0532,0.1108,-10.7100,57.1900,20.9300
244858,-1.0111,-0.0224,0.1542,-6.5800,85.6100,58.4500
244902,-1.0419,-0.0834,0.2250,-30.5200,100.8700,72.5900
244946,-0.9970,-0.1127,0.2416,-30.7300,74.6200,49.9800
244990,-0.9262,-0.1010,0.2035,-7.3500,32.2000,15.9600
245033,-0.9238,-0.0571,0.1288,7.8400,6.2300,-8.0500
245076,-0.9082,0.0083,0.0693,17.8500,8.1900,-11.5500
245119,-0.8662,0.0381,0.0644,24.8500,30.5200,5.0400
245162,-0.8486,0.0044,0.1186,0.2100,40.3200,23.1700
245205,-0.8564,-0.0200,0.1698,3.2900,31.9200,16.5200
245248,-0.8525,-0.0283,0.1859,5.6000,6.7900,2.7300
245291,-0.8779,-0.0024,0.1776,8.6100,-24.6400,-12.1100
245333,-0.9301,0.0429,0.1337,0.6300,-44.9400,-11.4800
245376,-0.9526,0.0547,0.1235,-4.6900,-36.8900,-6.2300
245419,-1.0658,0.0439,0.2020,-15.9600,-34.0200,-10.3600
245463,-1.1053,0.0527,0.2381,-23.3800,-53.6200,-13.9300
245506,-1.0072,0.0947,0.1366,-13.1600,-98.7700,-14.2100
245550,-1.0604,0.1166,0.0488,-17.8500,-148.9600,-16.1700
245594,-1.2737,0.1186,-0.0122,-2.9400,-156.6600,-60.9000
245638,-1.2932,0.2108,-0.0781,25.1300,-81.8300,-65.5200
245682,-1.1741,0.2396,-0.0254,64.0500,42.4200,-4.4100
245726,-0.9867,0.1249,0.0883,46.5500,105.7700,84.2800
245770,-0.9360,0.0020,0.1732,38.1500,120.5400,118.7900
245814,-0.8569,-0.0761,0.2230,25.7600,114.6600,75.8800
245858,-0.7901,-0.0927,0.2572,4.4800,75.6700,0.9800
245901,-0.7598,-0.0410,0.2591,-9.3800,5.4600,-55.7900
245945,-0.8930,0.0112,0.2020,-23.2400,-59.6400,-86.2400
245989,-0.9955,0.0888,0.1342,-49.6300,-112.9100,-75.1800
246033,-1.1048,0.1093,0.0669,-45.8500,-123.5500,-67.2700
246077,-1.1024,0.1532,0.0220,-72.7300,-115.0100,-29.6100
246121,-1.2400,0.1074,0.0429,-62.9300,-72.1000,-19.2500
246165,-1.1561,0.0712,-0.0015,-71.6100,-27.8600,0.0700
246208,-1.1000,0.0698,0.0810,-26.6000,35.6300,4.7600
246251,-1.1551,0.0137,0.2006,-6.0200,73.1500,20.1600
246294,-1.0726,-0.0346,0.2113,1.2600,40.6000,-0.5600
246337,-0.9575,-0.0142,0.1166,35.0000,9.8700,-29.8200
246380,-0.9531,-0.0332,0.1122,7.2800,18.1300,29.3300
246424,-0.9970,-0.0927,0.1513,-8.2600,23.3800,71.4000
246467,-1.0375,-0.1088,0.1874,-23.3800,14.7000,74.0600
246510,-1.0658,-0.1230,0.1932,-26.6000,-0.2100,60.6900
246553,-1.0609,-0.0834,0.1225,-7.2800,-33.2500,25.4800
246596,-1.0570,-0.0024,0.0459,10.1500,-36.7500,9.5900
246639,-1.0160,0.0239,-0.0054,-9.0300,13.0900,35.9100
246682,-0.9902,0.0068,0.0830,-13.5100,82.9500,47.8100
246725,-0.9374,-0.0332,0.1874,-8.2600,127.8200,43.8900
246768,-0.9018,-0.0571,0.2738,-2.1700,135.8000,28.9100
246811,-0.8638,-0.0737,0.3133,-6.7900,104.0900,1.5400
246854,-0.8272,-0.0542,0.3113,-7.1400,36.3300,-38.5000
246898,-0.8447,-0.0034,0.2601,-35.4200,-41.1600,-50.2600
246942,-0.9423,-0.0215,0.1806,-24.8500,-99.6100,-82.3200
246986,-1.1214,0.0210,0.1210,-35.5600,-105.4900,-77.5600
247030,-1.1170,0.0425,0.0088,-53.2700,-61.1800,-52.7800
247074,-1.1829,0.0712,0.1108,-2.1700,31.7100,-55.9300
247117,-1.1214,0.0351,0.2225,-32.1300,34.5100,26.5300
247161,-0.8847,-0.0703,0.1127,-56.6300,-30.1700,33.3200
247205,-0.9252,-0.0351,0.1054,-7.4200,-44.0300,-40.8100
247249,-1.0365,-0.0468,0.0717,-4.7600,-56.4900,-86.3100
247291,-1.0848,0.0015,0.0478,20.0900,-67.0600,-121.3100
247335,-1.0926,0.0527,0.0088,16.8000,-48.7900,-65.6600
247379,-1.0087,-0.0107,0.0268,39.1300,-3.0100,16.1700
247422,-1.0111,-0.1088,0.0986,59.3600,-15.1200,60.2700
247466,-1.0321,-0.1230,0.1303,57.1200,-44.9400,80.6400
247510,-1.0311,-0.1430,0.0752,30.1700,-61.0400,91.9800
247553,-1.0297,-0.1259,0.0351,41.3000,-34.4400,81.2000
247597,-1.0648,-0.1410,0.0752,25.6200,7.0700,86.3100
247640,-1.0150,-0.1493,0.1127,4.9000,44.8700,79.4500
247684,-0.8120,-0.0468,2.2507,87.9900,-28.1400,-1.9600
247727,-1.0141,0.1420,0.3655,-34.8600,16.9400,16.0300
247771,-0.9784,-0.0942,0.0063,-77.7000,73.9200,2.0300
247814,-1.0170,-0.0488,0.2264,-84.7700,122.7100,-31.2900
247858,-1.0170,-0.0049,0.2938,-107.5900,128.2400,-40.0400
247902,-0.9589,0.0000,0.3196,-96.3900,103.6700,-48.3700
247945,-0.9472,0.0127,0.3421,-76.3000,59.4300,-45.8500
247988,-0.8642,0.0088,0.2884,-67.9700,10.8500,-28.2800
248032,-0.8745,-0.0083,0.2162,-65.1000,-34.8600,-14.5600
248076,-0.9775,-0.0161,0.1552,-49.3500,-54.1100,-14.0700
248120,-1.0629,-0.0190,0.1279,-43.2600,-45.9900,3.9200
248163,-1.0521,-0.0503,0.1152,-34.0900,-33.2500,15.8200
248206,-0.9404,-0.5607,-0.3138,-37.3100,-32.8300,-33.6700
248249,-1.0960,-0.0410,0.1225,-8.1900,-14.2800,-73.2900
248291,-0.9462,-0.0161,0.0239,-29.6800,-22.3300,-43.9600
248334,-0.9223,-0.1074,-0.0254,-27.7200,10.2900,-16.4500
248377,-1.0199,-0.0615,0.2142,-25.1300,14.7000,18.5500
248421,-1.0843,-0.1142,0.2508,-40.8100,-45.9900,9.7300
248465,-1.0799,-0.0903,0.1420,-40.8800,-91.9100,-17.2200
248509,-1.0970,-0.0239,0.0610,-51.3100,-106.3300,-28.3500
248553,-1.1029,0.0303,0.0273,-60.6200,-79.8700,-13.7900
248597,-1.0292,0.0420,0.0268,-75.0400,-30.9400,10.7100
248641,-1.0102,0.0039,0.1225,-87.9900,-5.6700,33.1100
248684,-0.9975,-0.0268,0.1776,-74.3400,-8.4700,19.2500
248728,-0.9174,0.0093,0.1225,-44.1000,-35.4200,-12.1100
248771,-0.9614,0.0669,0.0971,-40.3900,-49.5600,8.0500
248815,-1.0585,0.0434,0.0571,-15.8200,-61.7400,44.0300
248859,-1.1580,0.0112,0.0493,-8.6800,-53.6200,68.4600
248903,-1.1610,-0.0332,0.0195,6.7200,-43.0500,103.1100
248946,-1.2361,-0.0669,0.0459,1.7500,-5.8100,121.5900
248989,-1.2371,-0.1225,0.1269,-33.5300,41.8600,121.5900
249033,-1.0960,-0.1200,0.1039,-49.7000,49.4200,77.0000
249077,-1.0756,-0.0654,0.1244,-60.9700,82.1800,21.2100
249120,-1.0790,-0.0298,0.1820,-94.7800,126.9800,-15.1200
249163,-1.0668,0.0073,0.2469,-104.8600,153.4400,-39.6200
249206,-1.0370,0.0181,0.2943,-111.8600,159.3200,-33.3200
249249,-1.0067,0.0059,0.3270,-109.9000,145.8800,-30.8700
249291,-0.9496,0.0078,0.3235,-102.5500,103.8800,-35.9800
249334,-0.8599,0.0185,0.2469,-91.5600,51.3100,-38.5700
249377,-0.8564,0.0556,0.1830,-62.7900,6.7200,-40.3900
249420,-0.8574,0.0556,0.1049,-42.0000,-28.7700,-12.7400
249464,-0.9004,0.0415,0.0517,-19.1800,-53.3400,34.2300
249508,-0.9545,-0.0112,0.0351,-25.1300,-37.1000,69.9300
249551,-0.9433,-0.0771,0.0356,-50.1900,-5.4600,76.7900
249594,-0.8799,-0.1142,0.0834,-25.9700,19.1100,27.3700
249638,-0.7891,-0.0913,0.0747,-84.6300,-9.3800,-14.8400
249682,-0.8808,-0.0483,0.0742,-84.5600,-3.6400,-89.6000
249725,-0.9672,0.0239,0.1435,-117.2500,-6.6500,-122.0100
249768,-1.1248,0.0595,0.2142,-136.4300,-11.0600,-157.5000
249811,-1.2127,0.1254,0.2547,-138.7400,-29.6100,-161.1400
249855,-1.1517,0.1493,0.2025,-114.3100,-61.3200,-134.4000
249899,-1.1107,0.1815,0.1488,-117.6000,-105.9100,-71.4000
249943,-1.0516,0.2528,0.0874,-63.4900,-136.2200,-24.2900
249986,-1.1551,0.2445,0.1049,-43.8900,-148.9600,66.7800
250029,-1.2786,0.1898,0.1049,-35.7000,-172.0600,119.1400
250073,-1.3371,0.1806,0.0883,-50.9600,-191.5200,116.3400
250117,-1.2371,0.1684,0.0356,-94.4300,-178.2900,92.1200
250161,-1.2864,0.1386,0.1049,-142.8000,-133.1400,72.3800
250205,-1.1946,0.1269,0.0605,-61.3200,-80.5700,26.5300
250249,-1.0102,0.1474,0.1171,6.5100,-0.1400,-9.4500
250292,-1.0429,0.0791,0.1991,-29.8200,54.3900,15.8900
250335,-1.2302,0.0185,0.2484,34.9300,108.0800,-27.5100
250379,-1.1790,-0.0171,0.3201,21.2800,121.2400,9.5900
250422,-1.0731,-0.0307,0.2913,14.4900,81.1300,41.1600
250466,-1.0399,-0.0581,0.2904,25.6200,89.4600,71.4000
250509,-1.0980,-0.0996,0.3548,36.3300,100.9400,72.6600
250553,-1.1536,-0.1191,0.4104,41.4400,88.5500,79.8700
250596,-1.1014,-0.1093,0.3733,34.9300,47.6000,86.1000
250640,-0.9936,-0.0849,0.2948,3.2900,38.7800,87.4300
250683,-1.0311,-0.0903,0.2137,-20.4400,32.4100,66.8500
250727,-0.9008,-0.0190,0.1723,0.6300,71.4700,17.4300
250770,-0.8408,0.0078,0.1771,-27.4400,87.5000,6.3700
250813,-0.8350,0.0005,0.1825,-27.2300,75.7400,-25.7600
250856,-0.8252,0.0776,0.1215,27.5100,51.2400,-73.2200
250900,-0.7852,0.1157,0.0874,28.0700,49.9100,-60.3400
250944,-0.7330,0.0981,0.1054,-7.3500,46.4800,-28.1400
250987,-0.7403,0.0366,0.1532,-3.0100,29.2600,-28.8400
251030,-0.8228,0.0205,0.2128,4.9000,-7.2800,-47.3900
251073,-0.8823,0.0303,0.1728,-13.8600,-49.5600,-58.5200
251116,-0.9745,0.0386,0.1596,-32.5500,-75.3900,-58.5200
251160,-1.1029,0.0351,0.1771,-7.1400,-80.9900,-52.0800
251203,-1.1136,0.0654,0.2264,-7.2100,-88.5500,-9.8700
251246,-1.1263,0.0766,0.1986,-14.5600,-132.3000,4.5500
251289,-1.2722,0.1132,0.1825,2.5200,-172.2000,8.4700
251332,-1.2429,0.1127,0.0986,-5.9500,-183.5400,37.6600
251375,-1.2668,0.0937,0.0722,-7.2800,-159.1800,42.8400
251419,-1.2137,0.0615,0.0429,-37.9400,-120.4000,37.6600
251463,-1.1712,0.0625,0.0366,-45.9200,-83.1600,-23.4500
251507,-1.1429,0.0942,0.0268,-39.9700,-35.8400,-72.3100
251550,-1.1434,0.1449,0.0429,-36.9600,34.2300,-72.9400
251594,-1.0419,0.1474,0.1210,-46.1300,105.0000,-9.5900
251638,-0.9409,0.1039,0.2240,-67.3400,126.9800,61.3900
251682,-1.0799,0.0146,0.3518,-20.7200,116.7600,77.2100
251726,-1.0907,-0.0410,0.3479,29.8900,73.8500,59.7100
251770,-1.0399,-0.0327,0.2791,31.2200,33.3200,40.6000
251814,-1.0663,-0.0195,0.1986,24.3600,5.9500,28.1400
251857,-1.0526,0.0098,0.1371,3.2200,5.0400,27.5100
251900,-1.0419,0.0283,0.0986,0.4900,43.8900,27.9300
251943,-1.0575,-0.0137,0.1859,-3.8500,93.8000,46.9000
251986,-1.0677,-0.0644,0.2752,16.8000,132.5800,49.5600
252030,-1.0721,-0.0820,0.3709,9.5900,121.5200,43.7500
252073,-0.8042,-0.0615,0.2279,15.7500,49.7000,21.4200
252117,-0.7037,-0.0254,0.1371,-13.9300,-14.4900,4.2700
252161,-1.0731,-0.0571,0.1571,-39.9000,-58.0300,-89.6000
252205,-1.0243,0.0215,0.0766,-43.4000,-52.2900,-92.9600
252249,-1.0799,0.0600,0.1049,38.1500,-9.5900,-96.9500
252292,-0.7447,0.0386,0.0063,51.6600,12.4600,-22.8900
252336,-0.7837,-0.0112,0.0986,58.7300,21.3500,4.7600
252380,-0.8042,-0.0342,0.1786,68.0400,28.0700,19.9500
252424,-0.8252,-0.0268,0.2523,56.5600,1.1900,39.1300
252467,-0.8940,-0.0444,0.2777,8.3300,-65.6600,52.0800
252511,-0.9902,-0.0034,0.2079,-5.2500,-126.9100,34.9300
252554,-1.0897,0.0620,0.1488,-19.6000,-164.5000,11.7600
252598,-1.1541,0.1454,0.1186,-24.5000,-173.1800,5.5300
252641,-1.1092,0.2406,0.1557,-181.7900,-154.2800,61.6700
252685,-1.2049,0.1166,0.0703,12.1100,-75.0400,-61.4600
252728,-1.1346,0.1562,0.0693,-40.0400,-33.0400,-77.9100
252772,-1.1893,0.1850,0.1547,-49.9800,15.3300,-99.7500
252816,-1.2044,0.1976,0.2396,-61.2500,49.4200,-88.1300
252859,-1.2117,0.1752,0.3109,-62.5100,45.7100,-57.7500
252903,-1.2029,0.1845,0.2259,-6.7200,-9.1700,-58.7300
252946,-1.2581,0.1850,0.1484,19.1800,-27.8600,4.4100
252989,-1.3069,0.1044,0.0961,42.9800,-4.9000,95.8300
253032,-1.3937,-0.0102,0.1654,65.6600,48.7900,180.2500
253076,-1.4728,-0.0986,0.2757,108.0100,120.1900,189.1400
253120,-1.3849,-0.1244,0.3362,73.7800,152.3200,179.8300
253164,-1.1268,-0.1210,0.3060,54.4600,181.3700,143.0100
253208,-0.9618,-0.1230,0.3109,26.4600,200.2700,98.7700
253251,-0.8550,-0.1132,0.3226,2.7300,187.9500,45.6400
253294,-0.6573,-0.0644,0.2694,-2.7300,136.3600,-3.7800
253337,-0.5866,0.0185,0.1937,-64.4000,60.1300,-8.9600
253381,-0.5827,0.0386,0.1508,-53.6200,48.6500,-50.8900
253425,-0.5646,0.0595,0.1210,-55.1600,-2.0300,-79.9400
253468,-0.7066,0.0971,0.1527,-22.6800,-48.0900,-116.9700
253512,-0.8628,0.1074,0.1566,-7.7700,-107.3100,-121.5200
253556,-1.0390,0.1127,0.1693,13.7200,-116.0600,-119.2100
253600,-1.2005,0.1015,0.1757,18.9000,-138.8800,-101.5700
253644,-1.3396,0.1098,0.1796,45.5000,-157.5700,-95.9000
253688,-1.3034,0.1366,0.1415,61.5300,-155.7500,-58.8700
253732,-1.3849,0.1254,0.1781,36.9600,-165.8300,-11.8300
253776,-1.2742,0.1464,0.1161,-2.3100,-173.6000,-21.2800
253819,-1.2078,0.1693,0.1303,-31.5700,-114.3100,-14.0700
253863,-1.0575,0.2474,0.1440,3.6400,-54.0400,-0.5600
253906,-1.0702,0.0649,0.2064,70.8400,-9.4500,4.9700
253950,-0.9755,0.0903,0.2094,67.5500,-8.8200,3.2900
253993,-0.9267,0.0771,0.1757,48.7200,17.5000,3.7800
254037,-0.9331,0.0459,0.1903,27.9300,26.3200,2.7300
254080,-0.9516,0.0478,0.1972,-13.1600,19.3200,8.7500
254123,-0.9721,0.0449,0.2196,-33.4600,11.4100,-8.5400
254166,-0.9716,0.0913,0.1947,-47.4600,0.9100,-24.0100
254210,-1.0707,0.0717,0.1586,-45.5700,11.2700,-41.8600
254254,-1.1570,0.0742,0.1967,-29.4000,37.8700,-51.8000
254298,-1.1829,0.0654,0.2328,-31.4300,51.2400,-35.4200
254342,-1.2151,0.0429,0.3216,-19.8100,60.5500,3.3600
254386,-1.1195,-0.0093,0.3616,-14.8400,57.4700,55.3700
254430,-1.0634,-0.0498,0.3348,-5.8100,11.0600,52.3600
254473,-0.9492,-0.0273,0.2425,-27.0900,-14.7000,73.8500
254517,-1.0775,-0.0678,0.2128,-54.8800,0.8400,120.6800
254561,-1.0551,-0.1308,0.2284,-16.3100,57.6800,116.4100
254605,-1.0785,-0.1532,0.2538,-8.8200,43.2600,72.1700
254649,-1.0072,-0.0791,0.1454,25.8300,48.8600,-8.5400
254692,-0.8945,-0.0088,0.0878,16.3100,85.1200,-26.0400
254735,-0.8316,-0.0010,0.1767,-1.3300,119.6300,0.9100
254778,-0.7496,-0.0205,0.2318,19.2500,121.5200,16.2400
254822,-0.6988,-0.0468,0.2679,31.3600,96.5300,26.8800
254866,-0.7535,-0.0698,0.3123,42.1400,38.9900,21.9100
254910,-0.6368,-0.0673,0.2025,33.6000,-40.8800,6.2300
254954,-0.9008,-0.0810,0.2220,15.2600,-107.8700,-16.6600
254998,-1.0409,-0.0488,0.1762,4.6900,-158.8300,-32.4800
255041,-1.2259,-0.0166,0.1493,-0.6300,-185.7800,-52.8500
255085,-1.4762,0.0205,0.1654,7.1400,-184.8700,-84.5600
255128,-1.4498,0.0854,0.1015,0.6300,-182.4900,-89.6700
255171,-1.2576,0.1484,0.0312,-53.4800,-162.9600,-54.5300
255215,-1.2737,0.1610,0.0137,-62.1600,-122.7100,-71.2600
255259,-1.2961,0.1850,-0.0098,7.8400,-16.3100,-103.8100
255303,-1.1434,0.1869,0.0337,10.2900,113.5400,-44.3800
255347,-1.1204,0.1142,0.2118,29.5400,187.6700,35.2100
255390,-0.9843,0.0537,0.2938,27.7900,188.0900,111.7200
255433,-1.0004,-0.0303,0.3484,66.8500,160.2300,124.1800
255477,-0.9140,-0.0493,0.3494,48.5800,118.5100,120.4700
255521,-0.8130,-0.0693,0.3323,3.8500,57.6800,100.8700
255564,-0.7935,-0.0644,0.2938,-6.5800,-5.7400,54.0400
255607,-0.8638,-0.0264,0.2196,-0.2100,-59.9200,-1.4000
255650,-0.9091,0.0298,0.1488,-0.6300,-94.7800,-40.7400
255693,-0.9789,0.0664,0.1059,-12.6700,-94.9900,-63.6300
255737,-1.0614,0.0839,0.0859,-15.8900,-64.8200,-91.2800
255781,-1.0790,0.1059,0.0893,-19.1100,-36.3300,-99.8900
255825,-1.0541,0.1074,0.0815,-34.0200,-10.5700,-63.4900
255869,-1.0912,0.0683,0.2137,-62.0200,7.9100,13.9300
255912,-1.0155,-0.0488,0.1952,-117.1100,-36.9600,53.5500
255956,-1.1268,0.0459,0.2230,-10.5000,-78.1200,-89.6700
256000,-1.3684,0.0771,0.1596,-29.6100,-110.5300,-59.8500
256042,-1.1932,0.0517,0.0439,-82.4600,-95.9700,10.8500
256085,-1.2898,0.0854,0.0830,-67.4100,-62.3700,7.6300
256128,-1.1683,0.1161,0.0098,-34.6500,11.8300,52.5700
256172,-1.2024,-0.0420,0.1342,-27.1600,91.7700,104.7200
256216,-1.0902,-0.0493,0.1884,58.0300,161.9100,112.2800
256260,-1.0912,-0.0122,0.2782,142.5900,230.5100,103.6700
256304,-1.0165,-0.0205,0.3743,79.2400,241.0100,133.5600
256348,-0.8843,-0.0756,0.3909,79.1000,188.0900,112.7000
256392,-0.7462,-0.0337,0.3758,47.3200,95.6900,87.9200
256436,-0.5983,-0.0410,0.2235,35.0000,0.3500,55.5100
256479,-0.5680,-0.0317,0.1249,33.0400,-84.9800,8.2600
256523,-0.7169,-0.0229,0.1279,21.7700,-157.4300,-45.5000
256567,-1.3503,-0.0834,0.2850,-9.3800,-214.2700,-74.9000
256611,-1.2493,0.0342,0.0849,-31.7100,-254.9400,-79.8000
256655,-1.3527,0.0590,0.0298,-35.9100,-181.5800,-70.2100
256699,-1.2351,0.0815,0.0049,-53.9000,-71.1200,-27.7200
256743,-1.0614,0.0468,0.0722,-46.8300,-19.1800,-22.3300
256787,-1.0785,0.0390,0.1381,-34.7900,-18.3400,-71.7500
256831,-1.1551,0.0595,0.1659,-29.1900,-3.5000,-107.1700
256875,-1.0912,0.0878,0.1776,-9.6600,22.9600,-88.0600
256918,-1.0560,0.1005,0.2035,37.1000,25.7600,-43.2600
256962,-0.9941,0.1303,0.2045,-136.5700,-41.5100,153.9300
257006,-1.0370,-0.0527,0.0181,83.4400,0.1400,74.6200
257049,-0.9887,-0.0244,-0.0488,142.5900,67.3400,29.6800
257093,-0.8901,-0.0010,0.0029,124.5300,108.0100,25.2700
257137,-0.9443,-0.0620,0.1098,-4.9700,56.6300,93.9400
257181,-0.8379,-0.0864,0.0605,-28.5600,11.6200,62.4400
257225,-0.7652,0.0005,0.0786,-98.8400,-46.9700,66.5700
257269,-0.8647,0.0015,0.1244,-253.0500,-95.1300,97.7200
257313,-1.1029,0.1879,0.1557,-89.3200,-49.5600,-121.5200
257357,-1.1976,0.1332,0.0947,-45.0800,0.3500,-134.1200
257401,-1.0477,0.1118,0.1547,-52.2900,15.1200,-97.8600
257445,-1.1307,0.0420,0.2172,-58.8000,51.8700,-33.5300
257489,-1.0814,-0.0107,0.3094,-81.4100,54.4600,41.8600
257533,-1.1087,-0.0961,0.2445,-27.8600,-15.7500,-28.0700
257576,-0.7052,-0.0005,0.0044,47.2500,13.7900,-5.6700
257620,-0.8154,-0.0810,0.1791,2.1700,30.8700,155.6800
257663,-1.0980,-0.1283,0.3152,90.0200,25.9700,66.1500
257707,-1.0731,-0.0683,0.2489,1.7500,-39.2700,59.7100
257750,-1.1078,-0.0259,0.1430,-34.5800,-90.5800,70.7000
257792,-1.0014,-0.0986,-0.0464,88.5500,-70.3500,64.0500
257835,-1.1112,-0.0366,0.0942,52.0800,-18.2000,79.8000
257878,-0.9838,-0.0400,0.0078,2.0300,13.3000,-2.6600
257921,-0.9116,0.0654,0.0166,-9.9400,46.0600,-98.6300
257964,-0.9960,0.1391,0.0952,-25.6200,67.9000,-134.4000
258008,-1.0702,0.1850,0.1469,-39.2700,46.3400,-131.1100
258051,-0.9858,0.2250,0.1288,-76.9300,1.7500,-73.7800
258094,-1.0243,0.2303,0.0654,-31.6400,-5.6000,-36.5400
258137,-0.9311,0.2142,0.0181,7.7700,14.9100,37.0300
258180,-0.8618,0.1098,0.0874,28.7000,27.7900,112.0700
258224,-1.0702,-0.0205,0.2128,71.1900,26.6000,116.2000
258268,-1.0360,-0.0273,0.2635,143.5000,51.5900,75.3200
258312,-0.9584,-0.0805,0.2967,47.4600,42.1400,107.1000
258356,-0.8955,-0.0834,0.2860,4.3400,-42.6300,77.2100
258400,-0.9799,-0.0908,0.1332,-28.6300,-121.2400,-5.8100
258443,-1.0917,0.0190,0.0620,-23.1000,-126.9800,-124.8800
258487,-1.1932,0.1303,0.0688,-32.8300,-85.1200,-129.7800
258531,-1.0687,0.1508,0.0161,-56.2100,-41.5800,-51.0300
258575,-0.9487,0.1352,0.0142,-24.3600,19.2500,-11.1300
258618,-0.9018,0.0639,0.0991,-22.1200,52.5000,9.6600
258661,-0.9160,0.0259,0.1840,-12.8800,63.9100,0.9800
258705,-0.8833,-0.0102,0.2147,-9.3800,34.9300,-4.3400
258749,-0.8852,-0.0317,0.2191,15.5400,-13.0900,-21.8400
258792,-0.9067,-0.0054,0.1664,17.2900,-65.5200,-19.7400
258836,-0.9926,0.0220,0.1059,13.7900,-97.5100,-11.0600
258880,-1.0170,0.0425,0.0503,11.0600,-95.7600,-8.3300
258924,-1.0463,0.0512,0.0395,2.9400,-70.6300,-3.2900
258967,-1.2019,0.0508,0.0991,15.6800,-41.5800,-14.7700
259011,-1.2156,0.1152,0.1903,-80.9200,-41.9300,30.0300
259055,-1.2268,0.1074,0.1693,26.6000,-30.5900,9.3800
259099,-1.1590,0.0024,0.1215,18.0600,-19.8100,16.3800
259142,-1.1800,-0.0200,0.0625,34.7900,-23.9400,-35.5600
259186,-1.1458,0.0161,0.0176,37.9400,18.8300,-23.3800
259230,-1.0565,0.0059,0.0800,41.3700,82.8800,17.7800
259274,-1.2610,0.0176,0.3309,-37.6600,147.0000,54.3200
259318,-1.0526,-0.0346,0.3045,-50.8200,147.2800,53.4800
259362,-0.9780,-0.0063,0.3357,-29.3300,105.4900,40.5300
259406,-0.9101,0.0107,0.3304,-22.2600,70.5600,61.3900
259450,-0.8467,-0.0010,0.3035,-13.9300,37.6600,76.3700
259494,-0.7881,-0.0171,0.2684,1.6100,14.7000,65.0300
259537,-0.7676,-0.0278,0.2313,6.3700,-2.5900,36.4000
259580,-0.7764,-0.0195,0.1781,22.8900,-12.8100,-4.9700
259623,-0.8130,-0.0020,0.1508,38.9200,-14.4200,-43.1200
259666,-0.8882,-0.0034,0.1562,49.7700,-6.6500,-58.5900
259708,-0.8818,-0.0102,0.2020,35.9800,0.4900,-34.5800
259751,-0.9516,-0.0620,0.2752,17.6400,-12.5300,-26.8800
259795,-1.0424,-0.0615,0.2601,-18.8300,-66.1500,-55.6500
259838,-1.2068,0.0083,0.1967,11.0600,-123.1300,-109.1300
259882,-1.2727,0.0952,0.1235,-22.7500,-151.0600,-78.8200
259925,-1.1902,0.0976,0.0405,-16.6600,-149.8700,-36.9600
259968,-1.1936,0.0917,0.0386,-34.0200,-140.2100,-7.6300
260011,-1.1556,0.0551,0.0351,-65.5900,-107.4500,41.8600
260055,-1.0799,0.0991,0.0381,55.1600,-42.7700,38.4300
260098,-0.9892,0.0869,0.0795,47.5300,20.3000,75.7400
260141,-0.9540,0.0420,0.1625,46.6900,71.3300,86.1700
260185,-0.9160,0.0869,0.2635,5.4600,95.9000,106.4000
260228,-0.8760,0.0200,0.2821,42.4900,88.4100,77.7700
260272,-0.8452,-0.0288,0.2904,26.3200,58.4500,33.3200
260316,-0.8276,-0.0229,0.2743,-2.3800,11.4100,-19.1100
260359,-0.8486,0.0361,0.2040,-13.5100,-12.3200,-72.5900
260402,-0.9389,0.0971,0.1913,-36.8200,-18.4100,-104.0900
260446,-1.0155,0.1293,0.1976,-60.2000,-7.3500,-109.2000
260490,-1.1292,0.1322,0.2372,-68.0400,4.4800,-114.1000
260533,-1.1566,0.1454,0.2396,-67.6900,-0.4900,-96.8100
260576,-1.1517,0.1337,0.2557,-64.7500,-15.4700,-35.8400
260620,-1.2239,0.0839,0.2552,-36.9600,-48.7900,-10.3600
260664,-1.1936,0.0893,0.1532,-5.0400,-83.8600,11.3400
260707,-1.1126,0.0800,0.0610,5.3900,-85.0500,58.3100
260750,-1.1722,0.0429,0.0766,-1.6800,-52.2200,121.8700
260793,-1.2244,-0.0303,0.1074,40.0400,21.5600,144.5500
260837,-1.1971,-0.0244,0.1918,109.5500,102.3400,112.7000
260881,-1.0790,-0.0376,0.2430,71.4000,133.6300,86.6600
260925,-0.9638,-0.0454,0.2738,8.4700,132.3000,59.7100
260969,-0.8818,-0.0390,0.2850,17.3600,124.9500,21.0000
261013,-0.7803,-0.0254,0.2869,6.5100,95.4100,2.8700
261056,-0.7100,0.0034,0.2733,3.6400,53.0600,-18.4800
261099,-0.7066,0.0137,0.2484,1.1900,17.5700,-30.7300
261142,-0.7510,0.0346,0.2259,-0.2800,-15.4700,-42.5600
261186,-0.8633,0.0351,0.2020,6.5100,-40.3900,-53.2000
261230,-0.9809,0.0342,0.2006,7.0700,-57.6800,-42.7000
261274,-0.9999,0.0346,0.1762,8.0500,-73.2200,-16.8700
261317,-1.1200,0.0122,0.2045,11.5500,-89.6000,-1.6100
261361,-1.2756,0.0000,0.2142,20.9300,-104.5100,-5.7400
261404,-1.1829,0.0395,0.1640,27.8600,-108.8500,7.7700
261448,-1.0536,0.0390,0.0752,14.4200,-132.2300,0.4900
261492,-1.1610,0.0493,0.0366,-7.0700,-140.8400,-70.9800
261536,-1.1405,0.1118,0.0176,-71.5400,-64.4000,-86.4500
261579,-1.0111,0.0600,0.0508,-67.4800,37.9400,-43.7500
261623,-0.9399,0.1259,0.1864,4.9700,84.1400,-7.9100
261666,-0.9160,0.0673,0.3728,-28.2100,70.6300,46.3400
261709,-0.9160,0.0386,0.2840,8.5400,37.8000,31.6400
261753,-0.8965,0.0371,0.2747,-27.3700,-13.7900,50.7500
261797,-0.8457,0.0698,0.1747,11.2000,-47.5300,11.6900
261841,-0.9087,0.0883,0.1337,4.5500,-56.2100,4.9700
261884,-0.9648,0.0937,0.1220,0.7000,-45.5700,8.4000
261927,-0.9906,0.1098,0.1322,-3.2900,-28.9100,8.4700
261971,-1.0414,0.1054,0.1659,-10.7800,-12.8100,-1.4000
262015,-1.0707,0.1064,0.1640,-3.2900,-1.1200,-39.6900
262058,-1.0756,0.1259,0.1557,7.9100,19.9500,-52.9900
262102,-1.0526,0.0937,0.2167,-7.5600,52.2900,0.7700
262146,-1.0609,0.0317,0.3328,-35.9100,40.6000,46.6200
262190,-1.0746,-0.0102,0.2899,-26.8800,-33.8100,-37.2400
262234,-1.4386,0.0888,0.2948,-9.7300,-48.0900,-80.5700
262278,-1.1727,0.1293,0.1401,-30.8000,-27.9300,-6.4400
262322,-1.2156,0.0981,0.1161,-9.3800,3.4300,50.8200
262365,-1.1448,0.0342,0.1283,-22.8200,67.7600,112.9100
262409,-1.0721,-0.0181,0.1908,62.5100,134.4700,108.5700
262453,-1.0404,-0.0405,0.2952,80.6400,176.2600,96.7400
262497,-0.8852,-0.0420,0.3362,104.6500,185.2900,72.4500
262541,-0.7925,-0.1049,0.3392,75.6700,166.6000,52.9200
262584,-0.6895,-0.0683,0.3484,104.7900,107.4500,-1.6800
262628,-0.5822,-0.0639,0.2333,46.7600,6.5100,-28.0000
262672,-0.7374,-0.0590,0.2152,33.1100,-93.4500,-63.4900
262716,-1.0028,-0.0625,0.1742,-7.6300,-180.1100,-73.3600
262760,-1.1419,0.0229,0.1049,9.1000,-234.2900,-75.3200
262804,-1.3113,0.0273,0.0815,-14.7700,-203.3500,-45.7800
262848,-1.3318,0.0249,0.0547,-3.9900,-100.8000,-24.7800
262892,-1.0663,0.0210,0.0249,-6.5100,-46.9700,30.1000
262936,-1.0575,-0.0185,0.0888,10.6400,-41.0200,22.5400
262980,-1.1009,-0.0351,0.1283,-0.0700,-13.0900,6.4400
263023,-1.0053,-0.0200,0.1288,7.6300,21.8400,-10.2900
263067,-0.8716,0.0098,0.1527,29.4700,47.1100,4.4100
263111,-0.8398,-0.0337,0.1840,23.2400,37.9400,15.4000
263155,-0.8862,-0.0459,0.2313,14.9800,16.1700,3.3600
263199,-0.8784,0.0971,0.2957,-70.5600,-28.6300,38.9200
263243,-0.9082,0.0527,0.1493,27.9300,-33.5300,-32.5500
263287,-1.0233,0.0161,0.1283,-11.4100,-42.9800,-26.5300
263331,-0.9984,0.0381,0.0810,-38.5700,-37.2400,-29.1200
263375,-0.9662,0.0742,0.0766,-36.6100,-13.0200,-23.5900
263418,-1.0331,0.0561,0.1703,-44.6600,20.5800,-16.4500
263462,-1.0502,0.0615,0.2318,-30.7300,16.5200,-19.7400
263505,-1.0468,0.0717,0.2225,-20.5100,-13.7900,-9.7300
263549,-0.9809,0.0669,0.1435,-15.3300,-17.5700,35.7700
263593,-1.0668,-0.0112,0.2225,-3.5000,9.7300,76.6500
263636,-1.1014,-0.0859,0.2689,-7.2100,-7.0700,43.9600
263680,-1.0702,-0.0278,0.1732,22.0500,-49.0000,-40.6000
263724,-1.0546,0.0605,0.1064,6.3000,-59.3600,-27.1600
263768,-1.1014,0.0459,0.1225,-23.2400,-31.5000,51.3100
263812,-1.1346,0.0024,0.1547,-6.5800,19.6000,77.4200
263856,-1.0614,-0.0054,0.2089,20.5100,89.6700,77.9800
263900,-1.0394,-0.0176,0.2894,-5.8800,96.3900,85.9600
263944,-0.9618,-0.0522,0.2938,-23.3800,80.0100,52.9900
263988,-0.9052,-0.0649,0.2635,-29.9600,69.7900,-14.1400
264032,-0.9028,-0.0049,0.2425,-14.4900,51.9400,-65.2400
264076,-0.9540,0.0478,0.2113,-46.9000,39.8300,-79.1000
264120,-0.9077,0.0976,0.1679,-49.0000,25.5500,-60.4100
264164,-0.8867,0.0893,0.1527,-44.6600,24.9900,-11.5500
264208,-0.8477,0.0576,0.1293,-30.4500,-5.8800,8.3300
264250,-0.8965,0.0376,0.0981,-26.4600,-47.2500,19.3200
264294,-0.9077,0.0146,0.0351,-21.5600,-64.8200,0.2800
264338,-0.9941,0.0200,0.0190,-25.1300,-69.0200,-16.6600
264382,-1.0492,0.0342,0.0112,-40.1800,-54.2500,-23.8000
264426,-1.0770,0.0449,0.0171,-34.3000,-36.6800,-11.7600
264470,-1.0878,0.0307,0.0493,-34.5100,-18.6900,19.8100
264514,-1.0560,-0.0381,0.0620,-17.7800,4.5500,27.0200
264558,-0.9999,-0.0693,0.0761,40.1100,16.9400,-19.1100
264602,-0.9248,-0.0059,0.0981,31.2200,-7.8400,-51.3800
264646,-1.1092,0.0044,0.0922,-51.1000,-38.2200,1.6100
264690,-1.1785,0.0747,0.0703,-63.9800,-35.0000,15.1200
264734,-1.0150,0.0874,0.0142,-9.4500,14.8400,16.4500
264778,-0.9316,0.0356,0.0659,-3.2200,23.9400,64.9600
264821,-0.8955,0.0654,0.1279,41.4400,23.4500,73.2200
264865,-0.9057,0.0425,0.1357,27.3000,25.3400,79.8700
264909,-0.9662,0.0508,0.1767,-14.0700,17.7800,107.1700
264953,-0.9457,0.0381,0.1449,-53.7600,10.9200,110.6000
264997,-0.9272,0.0249,0.1132,-74.4100,23.9400,74.6900
265041,-0.9209,0.0439,0.0986,-74.3400,55.9300,13.7200
265084,-0.8701,0.0859,0.1835,-76.6500,88.1300,-39.6200
265128,-0.8911,0.0737,0.2377,-104.6500,87.5000,-64.6800
265172,-0.9614,0.0874,0.2860,-106.9600,52.0800,-103.2500
265216,-0.9462,0.1240,0.2172,-137.4800,7.2100,-109.7600
265260,-1.0516,0.1654,0.2230,-110.0400,-13.5100,-118.6500
265304,-1.0394,0.1854,0.1757,-72.4500,-37.2400,-107.8700
265348,-1.0477,0.1810,0.1474,-51.9400,-59.9900,-80.5700
265392,-1.1273,0.1503,0.1606,-31.5700,-86.3100,-52.5000
265436,-1.0882,0.1357,0.1664,-24.5700,-110.4600,-14.1400
265480,-1.1278,0.1313,0.2377,-189.3500,-175.4900,94.8500
265524,-1.0438,0.0742,-0.0429,107.1700,-142.5200,28.9800
265568,-1.0097,0.0786,-0.0976,160.7200,-36.0500,78.3300
265612,-1.1307,0.0029,0.0566,141.8900,70.9100,116.6200
265656,-1.1453,0.0112,0.2333,74.0600,133.9800,131.6700
265699,-1.1112,-0.0590,0.3265,-73.0100,82.2500,159.3200
265743,-0.9745,-0.0898,0.2782,-19.3200,5.9500,36.9600
265786,-1.0102,-0.0400,0.1703,-60.3400,-45.4300,-8.4700
265829,-1.0790,0.0400,0.1318,-99.2600,-34.0200,-41.8600
265873,-1.0775,0.0961,0.1498,-103.6000,11.4100,-51.2400
265916,-1.0541,0.0727,0.2162,-124.0400,36.3300,-33.8800
265960,-1.0116,0.0630,0.2513,-60.8300,59.5000,-57.1200
266003,-0.9926,0.0776,0.2542,-17.8500,68.5300,-56.9800
266046,-0.9862,0.0844,0.2616,-5.2500,70.7700,-36.6100
266089,-0.9604,0.0717,0.2523,-3.2200,63.6300,-17.7100
266132,-0.9501,-0.0303,0.2347,-77.7700,43.8900,21.0000
266176,-0.9936,-0.0098,0.2396,-67.7600,12.8100,4.5500
266219,-0.9526,0.0259,0.1537,-55.9300,-9.3800,-10.2900
266262,-1.0253,0.0590,0.1669,-54.6700,-19.4600,-16.6600
266305,-1.0399,0.0615,0.1386,-52.0800,-29.3300,-19.1100
266348,-0.9872,0.0820,0.1083,-55.0200,-31.7100,-7.4200
266391,-0.9687,0.0771,0.0996,-50.3300,-22.8900,17.1500
266435,-0.9760,0.0190,0.1415,-2.8000,-3.1500,14.5600
266478,-0.8076,0.0034,0.1576,-52.0100,-9.5200,38.7100
266521,-0.8828,-0.0615,0.1762,-24.6400,-20.0900,0.2800
266564,-0.9150,-0.0371,0.1718,-17.8500,-19.1100,-21.7000
266607,-0.9526,-0.0395,0.2064,-40.1800,-15.8200,-18.6200
266651,-1.0555,-0.0429,0.2479,-48.4400,-9.3100,-17.5700
266695,-1.0311,-0.0229,0.2367,-51.1000,-6.5800,-14.1400
266739,-1.0248,-0.0059,0.2298,-49.0700,-6.0900,-18.7600
266782,-0.9775,0.0312,0.2011,-40.0400,-0.6300,-20.5800
266825,-1.0243,0.0639,0.2874,-39.1300,21.2800,-8.6800
266869,-0.8916,0.0010,0.2367,-55.4400,32.4800,11.1300
266912,-0.8652,-0.0156,0.2757,-63.1400,29.0500,12.6000
266956,-0.8599,-0.0346,0.2938,-62.7200,16.1000,-5.8100
266999,-0.8940,-0.0268,0.3113,-60.6200,-18.4100,-22.2600
267041,-0.9272,-0.0142,0.2860,-61.8100,-55.8600,-21.0700
267084,-0.9560,0.0146,0.2308,-63.0000,-88.2700,-5.4600
267127,-0.9936,0.0127,0.1923,-55.5100,-98.1400,10.0800
267171,-1.0863,0.0039,0.1957,-49.8400,-123.1300,26.0400
267215,-1.0824,0.0151,0.1244,-19.0400,-128.2400,23.6600
267259,-1.1000,0.0000,0.0917,-10.0100,-94.5700,37.9400
267302,-1.0736,-0.0298,0.0874,-15.6100,-47.4600,54.2500
267346,-1.0834,-0.0478,0.1366,-10.2200,-12.7400,52.0100
267390,-1.0848,-0.0586,0.2118,-2.3100,28.5600,47.1800
267433,-1.0829,-0.0732,0.2796,-9.0300,54.6700,42.5600
267476,-1.0604,-0.0742,0.3250,-17.8500,49.7700,25.8300
267520,-1.0404,-0.0498,0.3309,-19.4600,31.5000,-2.1700
267563,-1.0907,0.0156,0.3152,-9.8700,27.3700,-10.8500
267606,-1.0102,0.0703,0.2879,-20.0900,30.3800,31.5700
267650,-1.0063,0.0556,0.3133,-32.4100,53.4800,62.9300
267694,-1.0760,0.0059,0.3606,-43.4000,68.1800,68.0400
267738,-1.0731,-0.0122,0.3738,-35.7700,66.5000,51.5200
267782,-1.0228,-0.0059,0.3636,-25.9700,63.0000,20.7900
267826,-0.9731,0.0166,0.3211,-12.7400,57.1900,-1.8200
267869,-0.9248,0.0361,0.2767,-23.2400,62.3000,2.1700
267912,-0.8584,0.0161,0.2757,-29.4700,76.3000,5.1800
267956,-0.7935,-0.0015,0.2772,-22.0500,82.1100,-9.6600
267999,-0.7554,0.0142,0.3021,-20.9300,82.8100,-31.2200
268042,-0.7540,-0.0059,0.3206,-31.8500,65.3100,-38.5000
268085,-0.7969,0.0000,0.3338,-30.3100,6.7200,-53.4100
268129,-0.8691,0.0429,0.2962,-21.7700,-49.7700,-50.5400
268173,-0.9521,0.0576,0.2440,-8.3300,-93.1700,-42.2800
268216,-1.0282,0.0742,0.2045,5.6700,-116.2000,-26.4600
268259,-1.1190,0.0756,0.1830,16.5900,-123.4100,-2.0300
268302,-1.1702,0.0639,0.1664,23.3100,-104.3000,27.0200
268345,-1.2039,0.0322,0.1874,17.0800,-84.2800,52.4300
268389,-1.0936,-0.0112,0.1679,11.2000,-66.2200,50.1200
268432,-1.0092,-0.0268,0.1864,-7.2800,-67.2700,38.7800
268475,-1.0594,-0.0020,0.1815,-55.0200,-83.2300,14.9800
268518,-1.1566,0.0205,0.0786,23.9400,-102.4800,-87.7800
268561,-1.1732,0.1386,0.0659,10.8500,-75.6000,-112.3500
268605,-1.2068,0.1806,0.0673,3.7100,-27.7200,-60.8300
268648,-0.9902,0.1786,0.0137,13.4400,50.6800,-4.6900
268691,-0.8335,0.0800,0.1035,7.6300,137.9000,50.3300
268734,-0.9965,-0.0161,0.3099,-18.5500,185.2900,77.2800
268778,-0.9833,-0.0244,0.4309,-35.4200,161.2800,81.0600
268822,-0.9316,-0.0395,0.4568,-103.1100,74.7600,114.2400
268866,-0.8779,-0.1176,0.3675,-147.7700,2.2400,103.5300
268910,-0.9848,0.0205,0.3650,-78.9600,-34.3000,-29.2600
268954,-0.6295,0.0303,0.1137,-33.3200,-29.7500,-82.3900
268998,-0.9848,0.0522,0.2660,-33.8100,-25.6900,-115.5000
269041,-1.2459,0.0752,0.3440,-38.9900,-51.5900,-119.0700
269085,-1.0253,0.1469,0.1889,-43.5400,-71.6100,-116.9000
269129,-1.1795,0.1723,0.2352,-19.7400,-64.0500,-90.3000
269172,-1.1380,0.1713,0.2181,11.7600,-52.7800,-28.6300
269216,-1.1180,0.0986,0.2289,23.5900,-52.3600,28.3500
269259,-1.0970,0.0615,0.1991,45.1500,-53.0600,60.9700
269303,-1.0307,0.0098,0.1732,37.1700,-32.8300,100.9400
269347,-1.0399,-0.0351,0.2206,71.6800,24.9200,86.7300
269390,-1.1444,-0.0610,0.3426,22.8200,68.8100,91.5600
269434,-1.0746,-0.0654,0.3465,13.8600,65.3100,59.4300
269478,-0.9999,-0.0185,0.3382,22.1200,60.0600,14.9800
269522,-0.9867,0.0390,0.3172,24.9900,55.7900,-8.6100
269566,-0.9350,0.0634,0.2577,19.1100,54.6700,-4.6900
269610,-0.9209,0.0517,0.2450,20.4400,77.4200,1.5400
269654,-0.8867,-0.0024,0.2816,10.0800,85.6100,21.0700
269698,-0.8560,-0.0415,0.2923,8.8900,75.8100,28.7000
269742,-0.7749,-0.0532,0.2850,2.5200,51.9400,30.4500
269786,-0.7935,-0.0693,0.2845,-8.1900,13.7900,11.3400
269830,-0.8203,-0.0639,0.2245,-6.5800,-27.7200,-26.4600
269874,-0.9238,-0.0312,0.2020,-4.2000,-53.9700,-42.0700
269917,-0.9936,-0.0205,0.1776,-7.5600,-54.1800,-46.7600
269960,-1.2029,-0.0210,0.2582,-12.8800,-38.1500,-46.5500
270004,-1.1048,-0.0029,0.2435,-9.3800,-34.9300,-40.3200
270047,-0.8652,0.0117,0.1430,-5.9500,-64.4000,-35.3500
270091,-0.9267,0.0098,0.1454,-32.8300,-93.7300,-41.0200
270135,-1.1331,0.0229,0.1674,-21.0000,-93.9400,-97.3700
270179,-1.2210,0.0786,0.2025,-35.2800,-80.5000,-103.2500
270223,-1.1453,0.1288,0.1420,54.3900,-34.5100,-100.8000
270267,-0.9257,0.1630,0.0878,35.5600,-0.5600,7.0000
270311,-0.9087,0.0947,0.1903,36.1900,37.8000,90.5800
270355,-0.9487,0.0132,0.2840,29.7500,64.7500,134.1200
270399,-0.9911,-0.0356,0.3680,0.1400,38.8500,145.3900
270443,-0.9604,-0.0576,0.3689,-26.1800,-31.3600,124.3900
270487,-0.8808,-0.0068,0.2650,2.7300,-79.4500,42.9100
270530,-0.9706,0.0400,0.2279,4.4100,-103.3200,-8.2600
270574,-0.9638,0.0752,0.1527,-49.4200,-111.3000,-16.3800
270618,-1.0292,0.0732,0.1391,-126.0700,-73.7800,-28.7700
270662,-1.2478,0.0464,0.2054,-142.8700,-4.9000,-75.3900
270706,-1.2893,0.0337,0.2865,-128.2400,78.5400,-51.5900
270750,-1.0702,0.0717,0.3143,-62.9300,105.5600,-27.6500
270793,-0.9950,0.0386,0.3411,-35.6300,87.8500,16.5200
270837,-0.8984,-0.0303,0.2869,-28.9100,56.2100,58.3100
270881,-0.9560,-0.0620,0.3157,-31.2900,31.9200,82.3200
270925,-1.1541,-0.1078,0.3738,-41.7200,3.0100,86.5900
270969,-1.2088,-0.0917,0.2952,-5.8100,-36.1200,44.1000
271013,-1.1253,-0.0259,0.1825,35.5600,-47.2500,18.4800
271057,-0.9999,0.0390,0.0825,36.0500,-13.3000,39.6200
271101,-0.8974,0.0176,0.0825,26.0400,77.2800,86.3800
271145,-0.8911,-0.0527,0.2074,37.1700,133.9800,100.0300
271189,-0.8452,-0.0991,0.2752,28.6300,152.5300,70.9800
271233,-0.8028,-0.0854,0.3377,55.1600,146.0900,2.2400
271277,-0.7081,-0.0024,0.3743,49.6300,89.6700,-35.5600
271321,-0.6886,0.0376,0.3719,-23.5900,-17.3600,-2.1700
271365,-0.8203,0.0010,0.3372,-26.4600,-91.6300,-20.5800
271409,-0.9243,0.1240,0.2313,-20.4400,-142.8700,-59.4300
271453,-1.2507,0.0351,0.2528,-23.3100,-150.7100,-90.5100
271497,-1.2971,0.0830,0.2216,-0.1400,-124.7400,-110.3200
271541,-1.1351,0.1601,0.1513,18.4100,-97.1600,-80.7100
271584,-0.9911,0.1532,0.1166,-0.8400,-66.2200,-12.2500
271628,-1.0087,0.1313,0.1854,-54.7400,-49.5600,33.5300
271672,-1.0619,0.0883,0.2338,-57.5400,-23.4500,8.5400
271716,-1.0399,0.1254,0.2806,-25.4800,13.8600,-10.5700
271760,-1.0594,0.1401,0.3396,-0.1400,22.3300,10.9200
271804,-0.9121,0.1420,0.2640,-5.3900,-3.9900,43.2600
271847,-0.9614,0.0952,0.2743,19.4600,-7.9800,49.5600
271890,-0.8408,0.0605,0.2113,14.8400,0.0700,59.5700
271934,-0.9492,0.0083,0.2484,1.6100,-2.0300,39.9000
271977,-0.8974,0.0093,0.2250,-25.1300,-3.3600,4.6200
272020,-0.9467,0.0459,0.1952,-29.6100,-26.8800,-25.6900
272064,-0.9531,0.0747,0.1664,-23.5900,-25.3400,-41.7900
272108,-0.9374,0.0883,0.1498,-38.2900,-15.8200,-34.4400
272152,-0.9872,0.1039,0.2045,-30.2400,1.6800,-12.8800
272196,-1.0170,0.0669,0.2411,-24.9200,11.4100,-11.9000
272240,-1.1039,0.0669,0.2918,-12.9500,8.1200,-13.8600
272284,-1.0463,0.0683,0.2386,-9.0300,2.1000,18.5500
272328,-1.0341,0.0200,0.2357,-5.1100,-2.8000,38.9200
272371,-1.0390,-0.0132,0.2176,10.7800,2.8000,12.3200
272415,-1.0219,-0.0088,0.2069,-13.2300,14.5600,2.3800
272458,-0.9496,0.0049,0.1913,-24.5700,18.2700,1.0500
272501,-1.0048,-0.0132,0.2103,-24.3600,25.4100,0.9800
272545,-1.1209,-0.0420,0.2430,15.5400,39.6200,-14.2100
272588,-1.1322,-0.0307,0.2230,50.4700,34.8600,-21.6300
272631,-1.0346,-0.0107,0.1879,57.2600,20.0200,-18.3400
272675,-0.9667,-0.0181,0.1518,55.5800,12.0400,4.0600
272718,-0.9550,-0.0434,0.1503,76.4400,31.9200,24.1500
272762,-0.9765,-0.0473,0.1771,81.0600,56.1400,40.6700
272806,-0.9199,-0.0522,0.1864,99.4700,81.6200,35.2100
272850,-0.8755,-0.0605,0.1918,88.6200,79.0300,28.7000
272894,-0.8223,-0.0654,0.1957,85.6100,71.6800,1.7500
272937,-0.7891,-0.0464,0.1947,56.5600,51.1700,-20.5100
272981,-0.8408,-0.0327,0.1801,7.0700,18.4100,-31.5700
273024,-0.8735,-0.0386,0.1581,-16.6600,-8.1200,-39.3400
273068,-1.0146,-0.0327,0.1967,-31.0800,-28.5600,-39.8300
273112,-1.1546,-0.0112,0.2513,-59.0100,-38.6400,-19.8100
273156,-1.0287,0.0366,0.1810,-119.8400,-80.6400,15.7500
273200,-0.8857,0.0693,0.0937,-58.5200,-112.3500,-9.1700
273244,-1.1375,0.0805,0.1503,-92.4700,-142.0300,8.8200
273288,-0.9633,0.0620,0.0434,-146.5800,-127.6100,-7.6300
273332,-1.1663,0.0639,0.1767,-78.7500,-89.8800,-64.6100
273375,-1.1678,0.0937,0.2259,-41.1600,-70.9100,-36.0500
273419,-1.0687,0.0659,0.1771,-41.9300,-82.0400,-8.9600
273463,-0.9604,0.0181,0.1401,4.1300,-60.6900,6.7200
273506,-1.0707,-0.0010,0.2269,36.9600,-30.8700,4.9000
273550,-0.9618,-0.0142,0.1967,53.2700,-1.2600,14.2100
273593,-0.9658,-0.0054,0.2264,50.6100,20.2300,37.3800
273637,-0.9633,0.0034,0.2367,16.8700,19.8100,65.7300
273681,-1.1219,-0.0952,0.2621,27.7200,21.7700,54.6700
273725,-1.0687,-0.0117,0.1337,105.2800,14.5600,-22.8900
273769,-1.0287,0.0634,0.0278,1.7500,33.4600,14.4200
273813,-0.9643,0.0688,0.0937,-93.9400,81.2000,71.1200
273856,-0.9965,-0.0332,0.1571,-59.5700,95.9000,40.5300
273899,-0.9804,0.0312,0.2733,-54.2500,82.1800,17.1500
273943,-1.1019,0.0220,0.3328,-57.8200,60.2000,19.3200
273987,-1.0038,0.0073,0.2826,-38.8500,39.4100,4.6200
274030,-1.0121,0.0068,0.2259,-21.3500,8.1900,-20.0200
274074,-0.9838,0.0049,0.1444,-20.8600,-8.2600,-22.2600
274118,-0.9623,-0.0132,0.0996,-2.0300,-4.4100,-38.8500
274161,-0.9975,-0.0420,0.1015,15.6800,14.0000,-55.2300
274205,-0.9789,-0.0542,0.1274,51.9400,33.3900,-70.4200
274249,-0.8921,-0.0288,0.1518,78.6800,39.0600,-65.3100
274292,-0.9091,-0.0181,0.2050,58.4500,24.8500,-25.5500
274336,-0.9653,-0.0273,0.2523,25.9700,-2.8700,27.3700
274379,-1.0180,-0.0551,0.2616,7.1400,-38.3600,58.8700
274422,-0.9936,-0.0498,0.2064,11.7600,-74.2700,67.9000
274465,-0.9662,-0.0527,0.1488,27.5100,-87.9200,74.5500
274509,-0.9687,-0.0498,0.1479,46.5500,-68.5300,66.9900
274552,-0.9555,-0.0498,0.1396,17.2200,-34.4400,57.6800
274596,-0.9370,-0.0264,0.1718,-7.2800,-2.3100,23.5900
274639,-0.9482,-0.0039,0.2050,-18.9000,18.9700,-4.7600
274683,-0.9506,0.0146,0.2308,-39.0600,27.3700,-17.1500
274727,-0.9492,0.0283,0.2338,-47.6700,19.3900,-37.3100
274771,-0.9750,0.0337,0.2201,-36.3300,11.4800,-61.9500
274815,-0.9941,0.0464,0.2118,-19.2500,3.2200,-70.4200
274858,-1.0063,0.0493,0.2006,-19.7400,-19.3200,-50.9600
274901,-1.1087,0.0220,0.2069,-17.2900,-23.5200,-36.6100
274945,-1.1492,0.0195,0.2191,-12.5300,-24.7100,-3.7100
